* Measurement data measured by REW V5.20.11
* Source: Mic in at front panel (Pink) (Realtek(R) Audio), MICROPHONE (Master Volume), L, volume: 0.250
* Format: 256k Log Swept Sine, 1 sweep at -12.0 dBFS with no timing reference
* Dated: Aug 9, 2022 12:47:56 AM
* REW Settings:
*  C-weighting compensation: Off
*  Target level: 75.0 dB
* Note: 7HZ Salnotes Dioko R
* Measurement: 7HZ Salnotes Dioko R
* Smoothing: 1/12 octave
* Frequency Step: 1/48 octave
* Start Frequency: 20.000 Hz
*
* Freq(Hz)	SPL(dB)	Phase(degrees)
20.000000	107.294	-172.9027
20.299999	107.261	-173.4921
20.600000	107.226	-174.0588
20.900000	107.191	-174.6149
21.200001	107.158	-175.1730
21.400000	107.137	-175.5500
21.799999	107.099	-176.3141
22.000000	107.080	-176.6979
22.400000	107.042	-177.4573
22.700001	107.012	-178.0101
23.000000	106.982	-178.5430
23.299999	106.951	-179.0564
23.600000	106.921	-179.5539
24.000000	106.881	179.8013
24.299999	106.850	179.3279
24.700001	106.805	178.7102
25.000000	106.768	178.2599
25.400000	106.716	177.6815
25.799999	106.664	177.1309
26.200001	106.613	176.6049
26.500000	106.576	176.2221
26.900000	106.527	175.7209
27.200001	106.489	175.3494
27.600000	106.437	174.8605
28.000000	106.385	174.3839
28.500000	106.322	173.8114
29.000000	106.265	173.2602
29.500000	106.212	172.7152
30.000000	106.159	172.1664
30.400000	106.116	171.7303
30.700001	106.083	171.4114
31.100000	106.038	171.0043
31.500000	105.994	170.6190
32.000000	105.936	170.1599
32.500000	105.875	169.7149
33.000000	105.812	169.2835
33.500000	105.750	168.8757
34.000000	105.690	168.4962
34.500000	105.635	168.1340
35.000000	105.585	167.7695
35.500000	105.538	167.3911
36.000000	105.490	167.0064
36.500000	105.441	166.6349
37.000000	105.389	166.2925
37.500000	105.334	165.9796
38.200001	105.252	165.5723
38.700001	105.189	165.2938
39.500000	105.086	164.8727
40.000000	105.024	164.6277
40.599998	104.956	164.3494
41.200001	104.895	164.0855
41.799999	104.839	163.8333
42.500000	104.781	163.5410
43.099998	104.736	163.2771
43.700001	104.690	163.0006
44.400002	104.630	162.6812
45.000000	104.574	162.4247
45.500000	104.526	162.2248
46.200001	104.458	161.9608
46.799999	104.399	161.7452
47.500000	104.326	161.5038
48.200001	104.250	161.2765
48.700001	104.193	161.1279
49.400002	104.113	160.9445
50.000000	104.050	160.8074
50.799999	103.977	160.6415
51.500000	103.920	160.4999
52.200001	103.866	160.3532
53.000000	103.802	160.1852
53.799999	103.734	160.0386
54.500000	103.678	159.9336
55.200001	103.627	159.8365
56.000000	103.573	159.7183
57.000000	103.505	159.5513
58.000000	103.434	159.3595
59.000000	103.359	159.1509
60.000000	103.278	158.9556
60.799999	103.211	158.8247
61.500000	103.153	158.7299
62.200001	103.097	158.6516
63.000000	103.035	158.5818
64.000000	102.961	158.5258
65.000000	102.888	158.5043
66.000000	102.816	158.5132
67.000000	102.749	158.5502
68.000000	102.687	158.6124
69.000000	102.631	158.6855
70.000000	102.576	158.7537
71.000000	102.521	158.8094
72.000000	102.468	158.8529
73.000000	102.420	158.8873
74.000000	102.381	158.8942
75.000000	102.346	158.8398
76.199997	102.296	158.7115
77.500000	102.233	158.5724
78.800003	102.168	158.4595
80.000000	102.111	158.3679
81.199997	102.053	158.2770
82.500000	101.990	158.1730
83.800003	101.924	158.0715
85.000000	101.858	157.9980
86.199997	101.789	157.9589
87.500000	101.710	157.9596
88.500000	101.648	157.9871
90.000000	101.556	158.0627
91.199997	101.487	158.1423
92.500000	101.419	158.2354
93.800003	101.359	158.3284
95.000000	101.307	158.4151
96.199997	101.257	158.5081
97.500000	101.201	158.6234
98.800003	101.140	158.7570
100.000000	101.081	158.8936
101.500000	101.011	159.0751
103.000000	100.951	159.2644
104.400002	100.905	159.4463
106.000000	100.857	159.6552
107.500000	100.810	159.8397
109.000000	100.759	159.9946
110.599998	100.706	160.1169
112.000000	100.666	160.2122
113.800003	100.628	160.4014
115.000000	100.607	160.6249
117.199997	100.568	161.2972
118.000000	100.556	161.5811
120.599998	100.513	162.1085
122.000000	100.467	162.0551
124.099998	100.378	161.8544
125.000000	100.345	161.7895
126.500000	100.300	161.7406
128.000000	100.264	161.7711
131.500000	100.172	162.0189
132.000000	100.157	162.0580
134.000000	100.103	162.1992
136.000000	100.055	162.3186
138.000000	100.009	162.4420
140.000000	99.961	162.5992
143.000000	99.890	162.9185
145.000000	99.845	163.1567
147.500000	99.787	163.4358
150.000000	99.726	163.6725
152.500000	99.671	163.9174
155.000000	99.630	164.2290
157.500000	99.599	164.5716
160.000000	99.569	164.8822
162.500000	99.537	165.1460
165.000000	99.497	165.3942
167.500000	99.440	165.6642
170.000000	99.362	165.9810
172.500000	99.275	166.3464
175.000000	99.192	166.7455
177.500000	99.120	167.1652
180.000000	99.071	167.6010
182.500000	99.049	168.0475
185.000000	99.056	168.4901
187.500000	99.081	168.9026
190.000000	99.114	169.2524
192.500000	99.149	169.5152
195.000000	99.176	169.6912
197.500000	99.192	169.8060
200.000000	99.193	169.8946
203.000000	99.182	169.9991
206.000000	99.164	170.1063
209.000000	99.140	170.2092
212.000000	99.105	170.3184
214.000000	99.077	170.4086
218.000000	99.018	170.6630
220.000000	98.991	170.8253
224.000000	98.947	171.1734
227.000000	98.922	171.4251
230.000000	98.901	171.6656
233.000000	98.881	171.9006
236.000000	98.861	172.1306
240.000000	98.832	172.4256
243.000000	98.807	172.6430
247.000000	98.771	172.9512
250.000000	98.743	173.2136
254.000000	98.712	173.6135
258.000000	98.695	174.0284
262.000000	98.684	174.3886
265.000000	98.673	174.6190
269.000000	98.654	174.9174
272.000000	98.637	175.1584
276.000000	98.616	175.5066
280.000000	98.601	175.8690
285.000000	98.596	176.3036
290.000000	98.602	176.6515
295.000000	98.601	176.9002
300.000000	98.589	177.1370
304.000000	98.578	177.3569
307.000000	98.570	177.5362
311.000000	98.559	177.7807
315.000000	98.544	178.0248
320.000000	98.522	178.3445
325.000000	98.502	178.6985
330.000000	98.487	179.0707
335.000000	98.475	179.4327
340.000000	98.462	179.7708
345.000000	98.450	-179.9069
350.000000	98.440	-179.5833
355.000000	98.434	-179.2530
360.000000	98.428	-178.9198
365.000000	98.420	-178.5876
370.000000	98.409	-178.2566
375.000000	98.400	-177.9255
382.000000	98.391	-177.4617
387.000000	98.387	-177.1310
395.000000	98.383	-176.6034
400.000000	98.380	-176.2766
406.000000	98.376	-175.8947
412.000000	98.371	-175.5259
418.000000	98.365	-175.1531
425.000000	98.362	-174.6894
431.000000	98.366	-174.2753
437.000000	98.376	-173.8713
444.000000	98.390	-173.4302
450.000000	98.406	-173.0929
455.000000	98.419	-172.8569
462.000000	98.429	-172.5813
468.000000	98.430	-172.3426
475.000000	98.428	-172.0208
482.000000	98.427	-171.6718
487.000000	98.425	-171.4203
494.000000	98.419	-171.0507
500.000000	98.416	-170.7044
508.000000	98.418	-170.2331
515.000000	98.424	-169.8414
522.000000	98.427	-169.4594
530.000000	98.428	-169.0052
538.000000	98.432	-168.5309
545.000000	98.440	-168.1155
552.000000	98.449	-167.7040
560.000000	98.463	-167.2477
570.000000	98.480	-166.7052
580.000000	98.494	-166.1664
590.000000	98.504	-165.6143
600.000000	98.514	-165.0389
608.000000	98.528	-164.5735
615.000000	98.543	-164.1719
622.000000	98.557	-163.7655
630.000000	98.573	-163.2756
640.000000	98.597	-162.6330
650.000000	98.629	-161.9859
660.000000	98.674	-161.3612
670.000000	98.730	-160.8165
680.000000	98.781	-160.3561
690.000000	98.822	-159.9209
700.000000	98.855	-159.4641
710.000000	98.887	-158.9763
720.000000	98.923	-158.4773
730.000000	98.960	-157.9780
740.000000	98.999	-157.4751
750.000000	99.038	-156.9653
762.000000	99.086	-156.3445
775.000000	99.142	-155.6661
788.000000	99.204	-154.9865
800.000000	99.268	-154.3468
812.000000	99.341	-153.6977
825.000000	99.433	-153.0453
838.000000	99.529	-152.5072
850.000000	99.610	-152.0844
862.000000	99.681	-151.6745
875.000000	99.754	-151.2123
885.000000	99.811	-150.8427
900.000000	99.899	-150.2858
912.000000	99.972	-149.8383
925.000000	100.055	-149.3558
938.000000	100.144	-148.8958
950.000000	100.228	-148.5028
962.000000	100.312	-148.1340
975.000000	100.403	-147.7477
988.000000	100.496	-147.3678
1000.000000	100.583	-147.0162
1015.000000	100.694	-146.5606
1030.000000	100.816	-146.1083
1044.000000	100.940	-145.7506
1060.000000	101.087	-145.4744
1075.000000	101.218	-145.3128
1090.000000	101.342	-145.1884
1106.000000	101.473	-145.0702
1120.000000	101.585	-144.9699
1138.000000	101.725	-144.8310
1150.000000	101.816	-144.7263
1172.000000	101.986	-144.5040
1180.000000	102.053	-144.4162
1206.000000	102.299	-144.2073
1220.000000	102.444	-144.2201
1241.000000	102.662	-144.4220
1250.000000	102.753	-144.5593
1265.000000	102.902	-144.8459
1280.000000	103.048	-145.2186
1315.000000	103.362	-146.5685
1320.000000	103.399	-146.8227
1340.000000	103.513	-147.9369
1360.000000	103.564	-149.0448
1380.000000	103.564	-149.9364
1400.000000	103.541	-150.5201
1430.000000	103.518	-150.9656
1450.000000	103.513	-151.0626
1475.000000	103.523	-150.8320
1500.000000	103.596	-150.1770
1525.000000	103.757	-149.3793
1550.000000	103.983	-148.7509
1575.000000	104.227	-148.4130
1600.000000	104.440	-148.3983
1625.000000	104.573	-148.6657
1650.000000	104.609	-149.0979
1675.000000	104.581	-149.5939
1700.000000	104.538	-150.1060
1725.000000	104.523	-150.6243
1750.000000	104.556	-151.1354
1775.000000	104.638	-151.6255
1800.000000	104.758	-152.1257
1825.000000	104.895	-152.7009
1850.000000	105.029	-153.3516
1875.000000	105.156	-154.0153
1900.000000	105.280	-154.6405
1925.000000	105.412	-155.2290
1950.000000	105.560	-155.8507
1975.000000	105.723	-156.6301
2000.000000	105.883	-157.6704
2030.000000	106.045	-159.2789
2060.000000	106.152	-161.1961
2090.000000	106.185	-163.3013
2120.000000	106.130	-165.4260
2140.000000	106.041	-166.7298
2180.000000	105.771	-168.7495
2200.000000	105.609	-169.4094
2240.000000	105.277	-170.0440
2270.000000	105.045	-169.9601
2300.000000	104.851	-169.4813
2330.000000	104.710	-168.7218
2360.000000	104.637	-167.8265
2400.000000	104.648	-166.7219
2430.000000	104.718	-166.1509
2470.000000	104.843	-165.8649
2500.000000	104.929	-165.9716
2540.000000	105.014	-166.3439
2580.000000	105.072	-166.7905
2620.000000	105.122	-167.3038
2650.000000	105.150	-167.7615
2690.000000	105.168	-168.4284
2720.000000	105.165	-168.8981
2760.000000	105.153	-169.4073
2800.000000	105.154	-169.8207
2850.000000	105.194	-170.4820
2900.000000	105.235	-171.5438
2950.000000	105.232	-172.8394
3000.000000	105.184	-174.1996
3040.000000	105.114	-175.3327
3070.000000	105.041	-176.1882
3110.000000	104.910	-177.2678
3150.000000	104.744	-178.1841
3200.000000	104.490	-178.9041
3250.000000	104.216	-178.9301
3300.000000	103.986	-178.3123
3350.000000	103.844	-177.4398
3400.000000	103.774	-176.6903
3450.000000	103.738	-176.1157
3500.000000	103.730	-175.6272
3550.000000	103.763	-175.3147
3600.000000	103.837	-175.4182
3650.000000	103.930	-176.1725
3700.000000	104.007	-177.7484
3750.000000	104.013	179.7820
3820.000000	103.743	175.2740
3870.000000	103.224	172.6666
3950.000000	101.917	173.2987
4000.000000	101.128	176.7418
4060.000000	100.525	-177.7384
4120.000000	100.361	-172.2482
4180.000000	100.497	-167.8939
4250.000000	100.763	-164.6552
4310.000000	100.952	-163.0532
4370.000000	101.077	-162.0632
4440.000000	101.146	-161.2544
4500.000000	101.157	-160.5554
4550.000000	101.158	-159.8763
4620.000000	101.174	-158.8999
4680.000000	101.196	-158.1844
4750.000000	101.213	-157.5178
4820.000000	101.208	-156.9210
4870.000000	101.194	-156.4572
4940.000000	101.168	-155.6927
5000.000000	101.148	-154.9351
5080.000000	101.123	-153.7688
5150.000000	101.104	-152.5611
5220.000000	101.099	-151.2028
5300.000000	101.111	-149.5589
5380.000000	101.133	-147.9192
5450.000000	101.143	-146.5183
5520.000000	101.134	-145.0531
5600.000000	101.124	-143.1564
5700.000000	101.177	-140.5727
5800.000000	101.321	-138.2634
5900.000000	101.487	-136.4113
6000.000000	101.651	-134.6637
6080.000000	101.803	-133.2152
6150.000000	101.963	-132.0105
6220.000000	102.135	-130.9713
6300.000000	102.316	-129.9826
6400.000000	102.492	-128.7565
6500.000000	102.633	-127.0285
6600.000000	102.841	-124.4777
6700.000000	103.230	-121.4320
6800.000000	103.816	-118.6919
6900.000000	104.513	-116.8520
7000.000000	105.239	-116.0402
7100.000000	105.941	-116.1544
7200.000000	106.593	-117.0239
7300.000000	107.187	-118.3920
7400.000000	107.749	-119.8716
7500.000000	108.365	-121.1237
7620.000000	109.295	-122.8474
7750.000000	110.385	-127.2142
7880.000000	111.159	-135.3926
8000.000000	111.403	-144.8326
8120.000000	111.250	-154.0018
8250.000000	110.793	-162.5620
8380.000000	110.133	-169.4870
8500.000000	109.402	-174.3104
8620.000000	108.619	-177.6615
8750.000000	107.779	-179.8384
8850.000000	107.174	179.3548
9000.000000	106.394	179.1518
9120.000000	105.893	179.4205
9250.000000	105.442	179.8364
9380.000000	105.041	-179.6151
9500.000000	104.705	-178.8945
9620.000000	104.408	-177.9309
9750.000000	104.145	-176.6399
9880.000000	103.959	-175.1730
10000.000000	103.866	-173.7797
10150.000000	103.856	-172.1658
10300.000000	103.945	-170.8367
10440.000000	104.108	-169.9034
10600.000000	104.395	-169.2370
10750.000000	104.771	-169.1741
10900.000000	105.251	-169.9828
11060.000000	105.855	-172.2954
11200.000000	106.391	-176.0440
11380.000000	106.894	176.4367
11500.000000	107.007	170.1503
11720.000000	106.698	158.1872
11800.000000	106.452	154.1170
12060.000000	105.317	142.2396
12200.000000	104.489	136.9826
12410.000000	102.988	131.5643
12500.000000	102.289	130.2071
12650.000000	101.110	129.0174
12800.000000	99.955	128.8862
13150.000000	97.424	131.9669
13200.000000	97.087	132.7818
13400.000000	95.831	136.7956
13600.000000	94.754	141.5791
13800.000000	93.850	146.6637
14000.000000	93.118	151.9212
14300.000000	92.473	160.1887
14500.000000	92.450	165.7967
14750.000000	92.941	172.3155
15000.000000	93.939	177.2772
15250.000000	95.240	179.2723
15500.000000	96.539	176.6740
15750.000000	97.497	168.1978
16000.000000	97.829	154.2527
16250.000000	97.399	137.7932
16500.000000	96.268	122.8529
16750.000000	94.658	111.8063
17000.000000	92.843	104.3459
17250.000000	91.025	98.7647
17500.000000	89.259	93.7112
17750.000000	87.456	89.0200
18000.000000	85.485	85.4772
18250.000000	83.277	84.1222
18500.000000	80.829	85.8347
18750.000000	78.159	91.3698
19000.000000	75.306	101.3159
19250.000000	72.351	115.5820
19500.000000	69.475	132.9137
19750.000000	66.956	151.3791
20000.000000	65.024	169.4671
