* Measurement data measured by REW V5.20.9
* Source: Mic in at front panel (Pink) (Realtek(R) Audio), MICROPHONE (Master Volume), L, volume: 0.250
* Format: 256k Log Swept Sine, 1 sweep at -12.0 dBFS with no timing reference
* Dated: Aug 3, 2022 10:56:55 PM
* REW Settings:
*  C-weighting compensation: Off
*  Target level: 75.0 dB
* Note: 7hz Zero L
* Measurement: 7hz Zero L
* Smoothing: 1/12 octave
* Frequency Step: 1/48 octave
* Start Frequency: 20.000 Hz
*
* Freq(Hz)	SPL(dB)	Phase(degrees)
20.000000	102.899	-155.2002
20.299999	102.895	-155.9166
20.600000	102.887	-156.6071
20.900000	102.876	-157.2753
21.200001	102.866	-157.9276
21.400000	102.861	-158.3579
21.799999	102.855	-159.2128
22.000000	102.853	-159.6387
22.400000	102.850	-160.4852
22.700001	102.846	-161.1087
23.000000	102.841	-161.7147
23.299999	102.834	-162.2980
23.600000	102.827	-162.8569
24.000000	102.817	-163.5664
24.299999	102.810	-164.0781
24.700001	102.799	-164.7443
25.000000	102.791	-165.2405
25.400000	102.778	-165.9059
25.799999	102.763	-166.5781
26.200001	102.746	-167.2504
26.500000	102.729	-167.7459
26.900000	102.703	-168.3836
27.200001	102.681	-168.8397
27.600000	102.650	-169.4190
28.000000	102.621	-169.9754
28.500000	102.590	-170.6596
29.000000	102.562	-171.3456
29.500000	102.534	-172.0290
30.000000	102.503	-172.6950
30.400000	102.477	-173.2086
30.700001	102.458	-173.5822
31.100000	102.432	-174.0669
31.500000	102.406	-174.5383
32.000000	102.368	-175.1094
32.500000	102.323	-175.6536
33.000000	102.275	-176.1576
33.500000	102.229	-176.6107
34.000000	102.190	-177.0182
34.500000	102.160	-177.4061
35.000000	102.140	-177.8072
35.500000	102.126	-178.2413
36.000000	102.116	-178.7032
36.500000	102.105	-179.1748
37.000000	102.093	-179.6435
37.500000	102.079	179.8887
38.200001	102.050	179.2218
38.700001	102.021	178.7386
39.500000	101.962	177.9860
40.000000	101.922	177.5454
40.599998	101.876	177.0544
41.200001	101.833	176.6025
41.799999	101.791	176.1822
42.500000	101.746	175.7167
43.099998	101.709	175.3279
43.700001	101.670	174.9464
44.400002	101.620	174.5177
45.000000	101.575	174.1686
45.500000	101.536	173.8863
46.200001	101.482	173.4926
46.799999	101.434	173.1538
47.500000	101.374	172.7688
48.200001	101.309	172.4101
48.700001	101.260	172.1755
49.400002	101.193	171.8817
50.000000	101.142	171.6601
50.799999	101.085	171.3883
51.500000	101.043	171.1570
52.200001	101.002	170.9391
53.000000	100.955	170.7217
53.799999	100.912	170.5282
54.500000	100.881	170.3611
55.200001	100.856	170.1843
56.000000	100.833	169.9559
57.000000	100.804	169.6145
58.000000	100.769	169.2170
59.000000	100.723	168.7967
60.000000	100.667	168.4083
60.799999	100.619	168.1374
61.500000	100.579	167.9217
62.200001	100.540	167.7175
63.000000	100.497	167.4927
64.000000	100.445	167.2245
65.000000	100.392	166.9765
66.000000	100.339	166.7424
67.000000	100.286	166.5118
68.000000	100.234	166.2900
69.000000	100.182	166.0853
70.000000	100.130	165.8854
71.000000	100.077	165.6780
72.000000	100.024	165.4726
73.000000	99.975	165.2789
74.000000	99.932	165.0919
75.000000	99.892	164.9062
76.199997	99.844	164.6866
77.500000	99.787	164.4570
78.800003	99.728	164.2416
80.000000	99.674	164.0458
81.199997	99.621	163.8334
82.500000	99.562	163.5821
83.800003	99.497	163.3328
85.000000	99.434	163.1299
86.199997	99.366	162.9666
87.500000	99.288	162.8381
88.500000	99.227	162.7691
90.000000	99.139	162.6974
91.199997	99.073	162.6524
92.500000	99.007	162.6096
93.800003	98.944	162.5855
95.000000	98.886	162.5925
96.199997	98.829	162.6294
97.500000	98.767	162.6956
98.800003	98.705	162.7834
100.000000	98.650	162.8903
101.500000	98.590	163.0698
103.000000	98.545	163.2858
104.400002	98.517	163.4825
106.000000	98.495	163.6425
107.500000	98.478	163.6878
109.000000	98.459	163.6369
110.599998	98.432	163.5270
112.000000	98.397	163.4208
113.800003	98.326	163.2717
115.000000	98.259	163.1412
117.199997	98.100	162.8327
118.000000	98.039	162.7498
120.599998	97.916	162.8476
122.000000	97.924	162.9754
124.099998	97.965	163.0629
125.000000	97.972	163.0932
126.500000	97.962	163.1606
128.000000	97.929	163.2378
131.500000	97.820	163.3521
132.000000	97.806	163.3632
134.000000	97.755	163.4105
136.000000	97.707	163.4682
138.000000	97.656	163.5405
140.000000	97.604	163.6306
143.000000	97.525	163.8369
145.000000	97.475	164.0295
147.500000	97.421	164.2267
150.000000	97.371	164.3156
152.500000	97.319	164.3741
155.000000	97.271	164.4966
157.500000	97.232	164.6827
160.000000	97.205	164.8845
162.500000	97.180	165.0522
165.000000	97.147	165.1628
167.500000	97.096	165.2623
170.000000	97.025	165.4173
172.500000	96.946	165.6175
175.000000	96.876	165.7881
177.500000	96.830	165.8757
180.000000	96.809	165.9071
182.500000	96.794	165.9779
185.000000	96.770	166.1730
187.500000	96.743	166.4436
190.000000	96.722	166.6819
192.500000	96.707	166.8615
195.000000	96.691	167.0135
197.500000	96.667	167.1600
200.000000	96.635	167.3076
203.000000	96.594	167.4963
206.000000	96.558	167.6930
209.000000	96.525	167.8772
212.000000	96.488	168.0457
214.000000	96.461	168.1612
218.000000	96.402	168.4373
220.000000	96.375	168.5994
224.000000	96.331	168.9303
227.000000	96.305	169.1573
230.000000	96.283	169.3669
233.000000	96.262	169.5685
236.000000	96.242	169.7638
240.000000	96.213	170.0087
243.000000	96.188	170.1847
247.000000	96.151	170.4314
250.000000	96.124	170.6421
254.000000	96.093	170.9649
258.000000	96.074	171.2954
262.000000	96.060	171.5671
265.000000	96.047	171.7295
269.000000	96.023	171.9365
272.000000	96.002	172.1107
276.000000	95.976	172.3761
280.000000	95.955	172.6648
285.000000	95.941	173.0139
290.000000	95.938	173.2788
295.000000	95.929	173.4458
300.000000	95.909	173.6024
304.000000	95.891	173.7601
307.000000	95.878	173.8941
311.000000	95.860	174.0803
315.000000	95.839	174.2682
320.000000	95.808	174.5205
325.000000	95.779	174.8093
330.000000	95.756	175.1169
335.000000	95.735	175.4153
340.000000	95.715	175.6913
345.000000	95.693	175.9540
350.000000	95.675	176.2194
355.000000	95.660	176.4922
360.000000	95.646	176.7692
365.000000	95.628	177.0479
370.000000	95.609	177.3273
375.000000	95.591	177.6085
382.000000	95.571	178.0048
387.000000	95.558	178.2882
395.000000	95.540	178.7422
400.000000	95.528	179.0247
406.000000	95.514	179.3552
412.000000	95.498	179.6750
418.000000	95.482	-179.9992
425.000000	95.467	-179.5877
431.000000	95.460	-179.2162
437.000000	95.459	-178.8528
444.000000	95.461	-178.4564
450.000000	95.465	-178.1555
455.000000	95.469	-177.9491
462.000000	95.468	-177.7138
468.000000	95.459	-177.5075
475.000000	95.444	-177.2210
482.000000	95.431	-176.9054
487.000000	95.420	-176.6768
494.000000	95.403	-176.3371
500.000000	95.389	-176.0143
508.000000	95.378	-175.5719
515.000000	95.371	-175.2039
522.000000	95.362	-174.8441
530.000000	95.349	-174.4125
538.000000	95.340	-173.9581
545.000000	95.336	-173.5583
552.000000	95.334	-173.1604
560.000000	95.334	-172.7171
570.000000	95.335	-172.1874
580.000000	95.332	-171.6587
590.000000	95.326	-171.1132
600.000000	95.320	-170.5405
608.000000	95.321	-170.0744
615.000000	95.324	-169.6708
622.000000	95.327	-169.2609
630.000000	95.330	-168.7650
640.000000	95.339	-168.1116
650.000000	95.356	-167.4506
660.000000	95.385	-166.8091
670.000000	95.426	-166.2447
680.000000	95.463	-165.7617
690.000000	95.489	-165.3004
700.000000	95.507	-164.8146
710.000000	95.526	-164.2954
720.000000	95.547	-163.7630
730.000000	95.572	-163.2282
740.000000	95.597	-162.6872
750.000000	95.622	-162.1371
762.000000	95.655	-161.4650
775.000000	95.695	-160.7277
788.000000	95.741	-159.9857
800.000000	95.791	-159.2850
812.000000	95.850	-158.5719
825.000000	95.927	-157.8469
838.000000	96.009	-157.2327
850.000000	96.078	-156.7373
862.000000	96.139	-156.2541
875.000000	96.200	-155.7133
885.000000	96.249	-155.2847
900.000000	96.325	-154.6420
912.000000	96.388	-154.1284
925.000000	96.462	-153.5771
938.000000	96.540	-153.0524
950.000000	96.614	-152.6054
962.000000	96.688	-152.1885
975.000000	96.766	-151.7519
988.000000	96.842	-151.3103
1000.000000	96.912	-150.8777
1015.000000	97.007	-150.2925
1030.000000	97.116	-149.7177
1044.000000	97.229	-149.2703
1060.000000	97.359	-148.8990
1075.000000	97.472	-148.6333
1090.000000	97.579	-148.3858
1106.000000	97.690	-148.1200
1120.000000	97.787	-147.8822
1138.000000	97.909	-147.5611
1150.000000	97.989	-147.3344
1172.000000	98.141	-146.8944
1180.000000	98.201	-146.7321
1206.000000	98.421	-146.3087
1220.000000	98.547	-146.2202
1241.000000	98.725	-146.2611
1250.000000	98.792	-146.3137
1265.000000	98.895	-146.4150
1280.000000	98.987	-146.5139
1315.000000	99.179	-146.6878
1320.000000	99.205	-146.7086
1340.000000	99.306	-146.7877
1360.000000	99.402	-146.8438
1380.000000	99.492	-146.8450
1400.000000	99.587	-146.7698
1430.000000	99.756	-146.6173
1450.000000	99.881	-146.5859
1475.000000	100.041	-146.6123
1500.000000	100.208	-146.6525
1525.000000	100.387	-146.6644
1550.000000	100.575	-146.6215
1575.000000	100.763	-146.5398
1600.000000	100.921	-146.5128
1625.000000	101.006	-146.5935
1650.000000	101.004	-146.7363
1675.000000	100.944	-146.8890
1700.000000	100.876	-147.0356
1725.000000	100.838	-147.1803
1750.000000	100.848	-147.3010
1775.000000	100.903	-147.3555
1800.000000	100.999	-147.3473
1825.000000	101.119	-147.3423
1850.000000	101.246	-147.3761
1875.000000	101.372	-147.4271
1900.000000	101.494	-147.4553
1925.000000	101.617	-147.4275
1950.000000	101.748	-147.3464
1975.000000	101.893	-147.2780
2000.000000	102.048	-147.3078
2030.000000	102.230	-147.5186
2060.000000	102.393	-147.8869
2090.000000	102.528	-148.3456
2120.000000	102.633	-148.8181
2140.000000	102.688	-149.0933
2180.000000	102.778	-149.4503
2200.000000	102.823	-149.5328
2240.000000	102.920	-149.5412
2270.000000	103.003	-149.3972
2300.000000	103.107	-149.1122
2330.000000	103.246	-148.7374
2360.000000	103.429	-148.4146
2400.000000	103.724	-148.3407
2430.000000	103.953	-148.6365
2470.000000	104.234	-149.4243
2500.000000	104.416	-150.1966
2540.000000	104.621	-151.2872
2580.000000	104.805	-152.3563
2620.000000	104.984	-153.4819
2650.000000	105.109	-154.4122
2690.000000	105.252	-155.7377
2720.000000	105.341	-156.7427
2760.000000	105.442	-158.0665
2800.000000	105.527	-159.3899
2850.000000	105.610	-161.0565
2900.000000	105.660	-162.7075
2950.000000	105.676	-164.2422
3000.000000	105.672	-165.6183
3040.000000	105.662	-166.6317
3070.000000	105.652	-167.3363
3110.000000	105.643	-168.1840
3150.000000	105.645	-168.9478
3200.000000	105.667	-169.8732
3250.000000	105.701	-170.8421
3300.000000	105.730	-171.8605
3350.000000	105.749	-172.8750
3400.000000	105.758	-173.8785
3450.000000	105.749	-174.8846
3500.000000	105.718	-175.8461
3550.000000	105.674	-176.7274
3600.000000	105.628	-177.5553
3650.000000	105.586	-178.3731
3700.000000	105.546	-179.1929
3750.000000	105.510	-179.9964
3820.000000	105.473	178.8993
3870.000000	105.451	178.1382
3950.000000	105.428	177.0332
4000.000000	105.420	176.3687
4060.000000	105.405	175.5213
4120.000000	105.366	174.6158
4180.000000	105.296	173.6802
4250.000000	105.170	172.5773
4310.000000	105.025	171.6862
4370.000000	104.862	170.8730
4440.000000	104.660	169.9796
4500.000000	104.478	169.2458
4550.000000	104.319	168.6782
4620.000000	104.085	167.9893
4680.000000	103.877	167.5585
4750.000000	103.640	167.3022
4820.000000	103.433	167.2545
4870.000000	103.310	167.2736
4940.000000	103.168	167.2836
5000.000000	103.064	167.2262
5080.000000	102.924	167.0773
5150.000000	102.790	166.9736
5220.000000	102.645	166.9458
5300.000000	102.465	167.0095
5380.000000	102.269	167.1656
5450.000000	102.077	167.3824
5520.000000	101.867	167.7123
5600.000000	101.616	168.2499
5700.000000	101.314	169.0902
5800.000000	101.035	169.9866
5900.000000	100.767	170.9213
6000.000000	100.504	172.0459
6080.000000	100.305	173.1412
6150.000000	100.147	174.2325
6220.000000	100.007	175.4265
6300.000000	99.870	176.9118
6400.000000	99.737	178.9597
6500.000000	99.658	-178.8186
6600.000000	99.643	-176.5228
6700.000000	99.691	-174.2395
6800.000000	99.802	-172.0036
6900.000000	99.981	-169.8676
7000.000000	100.230	-167.9338
7100.000000	100.541	-166.3063
7200.000000	100.913	-165.0621
7300.000000	101.346	-164.3054
7400.000000	101.835	-164.2008
7500.000000	102.354	-164.9256
7620.000000	102.965	-167.0809
7750.000000	103.534	-171.1835
7880.000000	103.899	-177.1375
8000.000000	103.970	176.1560
8120.000000	103.753	169.0883
8250.000000	103.209	161.9852
8380.000000	102.397	156.2440
8500.000000	101.480	152.5400
8620.000000	100.483	150.3906
8750.000000	99.391	149.5859
8850.000000	98.582	149.8627
9000.000000	97.460	151.4244
9120.000000	96.659	153.4006
9250.000000	95.885	156.0642
9380.000000	95.200	159.1562
9500.000000	94.647	162.2934
9620.000000	94.164	165.6294
9750.000000	93.714	169.4402
9880.000000	93.339	173.4327
10000.000000	93.063	177.2473
10150.000000	92.814	-177.8147
10300.000000	92.683	-172.6834
10440.000000	92.691	-167.7549
10600.000000	92.898	-162.0240
10750.000000	93.344	-156.7598
10900.000000	94.083	-152.0639
11060.000000	95.189	-148.5105
11200.000000	96.318	-147.5362
11380.000000	97.719	-150.3831
11500.000000	98.467	-155.0747
11720.000000	99.184	-168.2196
11800.000000	99.199	-173.7238
12060.000000	98.386	169.8604
12200.000000	97.514	163.4728
12410.000000	95.884	157.8538
12500.000000	95.132	156.7451
12650.000000	93.878	156.2807
12800.000000	92.673	157.1749
13150.000000	90.235	162.6683
13200.000000	89.936	163.7128
13400.000000	88.854	168.2879
13600.000000	87.930	173.2971
13800.000000	87.138	178.5298
14000.000000	86.498	-176.1622
14300.000000	85.936	-168.3093
14500.000000	85.873	-163.3274
14750.000000	86.135	-157.7307
15000.000000	86.706	-153.3683
15250.000000	87.470	-151.0618
15500.000000	88.249	-151.9726
15750.000000	88.807	-157.2630
16000.000000	88.908	-167.0516
16250.000000	88.392	-179.3766
16500.000000	87.251	169.1642
16750.000000	85.621	161.1991
17000.000000	83.696	157.3331
17250.000000	81.663	156.7741
17500.000000	79.668	158.4092
17750.000000	77.793	161.3509
18000.000000	76.047	165.0266
18250.000000	74.405	169.1088
18500.000000	72.821	173.4617
18750.000000	71.229	178.1598
19000.000000	69.558	-176.3838
19250.000000	67.744	-169.3853
19500.000000	65.786	-160.2413
19750.000000	63.769	-149.1171
20000.000000	61.803	-136.6308
