* Measurement data measured by REW V5.20.11
* Source: Mic in at front panel (Pink) (Realtek(R) Audio), MICROPHONE (Master Volume), L, volume: 0.250
* Format: 256k Log Swept Sine, 1 sweep at -12.0 dBFS with no timing reference
* Dated: Aug 25, 2022 11:34:16 PM
* REW Settings:
*  C-weighting compensation: Off
*  Target level: 75.0 dB
* Note: Audio Hekili L
* Measurement: KZ EDX Ultra Aug 25
* Smoothing: 1/12 octave
* Frequency Step: 1/48 octave
* Start Frequency: 20.000 Hz
*
* Freq(Hz)	SPL(dB)	Phase(degrees)
20.000000	106.860	-166.5601
20.299999	106.870	-166.9712
20.600000	106.880	-167.3783
20.900000	106.891	-167.7853
21.200001	106.901	-168.1930
21.400000	106.908	-168.4643
21.799999	106.919	-169.0034
22.000000	106.924	-169.2704
22.400000	106.933	-169.7978
22.700001	106.938	-170.1873
23.000000	106.943	-170.5708
23.299999	106.947	-170.9473
23.600000	106.951	-171.3161
24.000000	106.955	-171.7957
24.299999	106.959	-172.1479
24.700001	106.963	-172.6113
25.000000	106.967	-172.9569
25.400000	106.971	-173.4164
25.799999	106.974	-173.8715
26.200001	106.976	-174.3164
26.500000	106.976	-174.6405
26.900000	106.977	-175.0598
27.200001	106.977	-175.3668
27.600000	106.978	-175.7710
28.000000	106.979	-176.1731
28.500000	106.979	-176.6730
29.000000	106.977	-177.1635
29.500000	106.974	-177.6387
30.000000	106.970	-178.0997
30.400000	106.967	-178.4624
30.700001	106.965	-178.7327
31.100000	106.962	-179.0920
31.500000	106.958	-179.4496
32.000000	106.953	-179.8929
32.500000	106.947	179.6686
33.000000	106.941	179.2340
33.500000	106.935	178.8022
34.000000	106.927	178.3738
34.500000	106.919	177.9505
35.000000	106.910	177.5343
35.500000	106.900	177.1266
36.000000	106.888	176.7292
36.500000	106.875	176.3448
37.000000	106.862	175.9758
37.500000	106.848	175.6208
38.200001	106.828	175.1403
38.700001	106.814	174.8063
39.500000	106.789	174.2952
40.000000	106.775	173.9921
40.599998	106.759	173.6362
41.200001	106.745	173.2760
41.799999	106.732	172.9076
42.500000	106.716	172.4731
43.099998	106.702	172.1014
43.700001	106.689	171.7326
44.400002	106.673	171.3098
45.000000	106.661	170.9529
45.500000	106.651	170.6521
46.200001	106.639	170.2131
46.799999	106.625	169.8206
47.500000	106.604	169.3622
48.200001	106.577	168.9226
48.700001	106.557	168.6229
49.400002	106.527	168.2194
50.000000	106.501	167.8871
50.799999	106.465	167.4677
51.500000	106.436	167.1208
52.200001	106.410	166.7814
53.000000	106.382	166.3907
53.799999	106.355	165.9971
54.500000	106.332	165.6531
55.200001	106.307	165.3105
56.000000	106.278	164.9252
57.000000	106.240	164.4567
58.000000	106.203	163.9821
59.000000	106.162	163.4911
60.000000	106.116	163.0113
60.799999	106.078	162.6520
61.500000	106.044	162.3572
62.200001	106.010	162.0813
63.000000	105.971	161.7900
64.000000	105.922	161.4550
65.000000	105.874	161.1340
66.000000	105.823	160.8141
67.000000	105.772	160.4866
68.000000	105.723	160.1453
69.000000	105.682	159.7791
70.000000	105.651	159.3560
71.000000	105.624	158.8486
72.000000	105.585	158.3169
73.000000	105.531	157.9217
74.000000	105.481	157.7375
75.000000	105.448	157.6559
76.199997	105.418	157.5309
77.500000	105.376	157.3536
78.800003	105.330	157.1647
80.000000	105.293	156.9363
81.199997	105.265	156.6175
82.500000	105.241	156.1666
83.800003	105.214	155.6331
85.000000	105.180	155.1103
86.199997	105.135	154.5990
87.500000	105.074	154.0848
88.500000	105.022	153.7188
90.000000	104.942	153.2061
91.199997	104.878	152.8167
92.500000	104.807	152.4225
93.800003	104.734	152.0723
95.000000	104.665	151.7812
96.199997	104.595	151.5034
97.500000	104.517	151.2117
98.800003	104.436	150.9396
100.000000	104.364	150.7149
101.500000	104.277	150.4751
103.000000	104.196	150.2773
104.400002	104.125	150.1183
106.000000	104.051	149.9501
107.500000	103.988	149.7896
109.000000	103.931	149.6166
110.599998	103.876	149.4021
112.000000	103.825	149.1680
113.800003	103.749	148.7996
115.000000	103.690	148.5246
117.199997	103.569	148.0114
118.000000	103.523	147.8436
120.599998	103.381	147.4796
122.000000	103.316	147.3849
124.099998	103.226	147.2607
125.000000	103.186	147.1983
126.500000	103.119	147.0801
128.000000	103.050	146.9454
131.500000	102.887	146.6038
132.000000	102.863	146.5564
134.000000	102.764	146.3732
136.000000	102.662	146.2036
138.000000	102.561	146.0582
140.000000	102.461	145.9440
143.000000	102.313	145.8250
145.000000	102.214	145.7613
147.500000	102.091	145.6840
150.000000	101.965	145.6313
152.500000	101.836	145.6370
155.000000	101.711	145.7062
157.500000	101.595	145.8079
160.000000	101.489	145.9029
162.500000	101.386	145.9767
165.000000	101.280	146.0403
167.500000	101.171	146.1212
170.000000	101.061	146.2441
172.500000	100.954	146.4100
175.000000	100.852	146.5987
177.500000	100.755	146.7928
180.000000	100.660	146.9864
182.500000	100.567	147.1791
185.000000	100.475	147.3719
187.500000	100.384	147.5655
190.000000	100.294	147.7647
192.500000	100.203	147.9783
195.000000	100.113	148.2130
197.500000	100.024	148.4711
200.000000	99.937	148.7531
203.000000	99.835	149.1170
206.000000	99.740	149.4866
209.000000	99.651	149.8362
212.000000	99.562	150.1694
214.000000	99.501	150.3985
218.000000	99.379	150.9225
220.000000	99.320	151.2222
224.000000	99.212	151.8499
227.000000	99.140	152.3077
230.000000	99.071	152.7465
233.000000	99.005	153.1714
236.000000	98.941	153.5875
240.000000	98.858	154.1370
243.000000	98.796	154.5515
247.000000	98.712	155.1263
250.000000	98.650	155.5909
254.000000	98.574	156.2636
258.000000	98.512	156.9543
262.000000	98.462	157.5894
265.000000	98.425	158.0236
269.000000	98.375	158.5920
272.000000	98.337	159.0349
276.000000	98.291	159.6502
280.000000	98.253	160.2767
285.000000	98.219	161.0374
290.000000	98.198	161.7045
295.000000	98.173	162.2596
300.000000	98.139	162.7904
304.000000	98.108	163.2391
307.000000	98.087	163.5866
311.000000	98.060	164.0501
315.000000	98.035	164.5059
320.000000	98.001	165.0783
325.000000	97.971	165.6717
330.000000	97.947	166.2719
335.000000	97.931	166.8520
340.000000	97.918	167.3968
345.000000	97.905	167.9135
350.000000	97.893	168.4186
355.000000	97.881	168.9184
360.000000	97.871	169.4103
365.000000	97.863	169.8920
370.000000	97.856	170.3630
375.000000	97.851	170.8237
382.000000	97.845	171.4518
387.000000	97.843	171.8885
395.000000	97.842	172.5682
400.000000	97.842	172.9796
406.000000	97.845	173.4516
412.000000	97.847	173.8989
418.000000	97.847	174.3406
425.000000	97.848	174.8755
431.000000	97.853	175.3428
437.000000	97.864	175.7909
444.000000	97.882	176.2720
450.000000	97.900	176.6345
455.000000	97.916	176.8856
462.000000	97.928	177.1745
468.000000	97.929	177.4199
475.000000	97.924	177.7463
482.000000	97.918	178.0962
487.000000	97.914	178.3449
494.000000	97.905	178.7064
500.000000	97.897	179.0425
508.000000	97.893	179.4957
515.000000	97.891	179.8676
522.000000	97.887	-179.7723
530.000000	97.880	-179.3436
538.000000	97.875	-178.8957
545.000000	97.874	-178.5043
552.000000	97.873	-178.1168
560.000000	97.874	-177.6877
570.000000	97.874	-177.1788
580.000000	97.870	-176.6696
590.000000	97.864	-176.1396
600.000000	97.858	-175.5781
608.000000	97.856	-175.1172
615.000000	97.856	-174.7154
622.000000	97.854	-174.3058
630.000000	97.853	-173.8108
640.000000	97.861	-173.1649
650.000000	97.878	-172.5235
660.000000	97.905	-171.9144
670.000000	97.938	-171.3912
680.000000	97.965	-170.9505
690.000000	97.981	-170.5239
700.000000	97.989	-170.0610
710.000000	97.996	-169.5538
720.000000	98.006	-169.0250
730.000000	98.017	-168.4878
740.000000	98.028	-167.9394
750.000000	98.042	-167.3759
762.000000	98.061	-166.6782
775.000000	98.086	-165.8989
788.000000	98.116	-165.0959
800.000000	98.150	-164.3201
812.000000	98.198	-163.5204
825.000000	98.268	-162.7047
838.000000	98.345	-162.0134
850.000000	98.410	-161.4559
862.000000	98.468	-160.9116
875.000000	98.528	-160.3000
885.000000	98.574	-159.8125
900.000000	98.648	-159.0770
912.000000	98.710	-158.4866
925.000000	98.783	-157.8495
938.000000	98.863	-157.2356
950.000000	98.939	-156.7023
962.000000	99.016	-156.1952
975.000000	99.099	-155.6612
988.000000	99.183	-155.1357
1000.000000	99.262	-154.6515
1015.000000	99.365	-154.0330
1030.000000	99.481	-153.4215
1044.000000	99.602	-152.9191
1060.000000	99.744	-152.4812
1075.000000	99.869	-152.1697
1090.000000	99.985	-151.8971
1106.000000	100.104	-151.6262
1120.000000	100.203	-151.4010
1138.000000	100.326	-151.1169
1150.000000	100.406	-150.9247
1172.000000	100.554	-150.5541
1180.000000	100.609	-150.4127
1206.000000	100.806	-150.0031
1220.000000	100.916	-149.8742
1241.000000	101.071	-149.7975
1250.000000	101.133	-149.7866
1265.000000	101.230	-149.7764
1280.000000	101.320	-149.7657
1315.000000	101.517	-149.7110
1320.000000	101.544	-149.7018
1340.000000	101.648	-149.6650
1360.000000	101.745	-149.6091
1380.000000	101.837	-149.5001
1400.000000	101.934	-149.3171
1430.000000	102.103	-149.0128
1450.000000	102.224	-148.8905
1475.000000	102.372	-148.8141
1500.000000	102.513	-148.7584
1525.000000	102.649	-148.6791
1550.000000	102.788	-148.5508
1575.000000	102.941	-148.3913
1600.000000	103.110	-148.2991
1625.000000	103.284	-148.3352
1650.000000	103.453	-148.4640
1675.000000	103.616	-148.6427
1700.000000	103.775	-148.8570
1725.000000	103.928	-149.1048
1750.000000	104.076	-149.3581
1775.000000	104.223	-149.5792
1800.000000	104.380	-149.7869
1825.000000	104.548	-150.0624
1850.000000	104.719	-150.4487
1875.000000	104.885	-150.9294
1900.000000	105.044	-151.4693
1925.000000	105.199	-152.0369
1950.000000	105.354	-152.6258
1975.000000	105.514	-153.2784
2000.000000	105.673	-154.0462
2030.000000	105.853	-155.1254
2060.000000	106.013	-156.3315
2090.000000	106.153	-157.6258
2120.000000	106.270	-158.9799
2140.000000	106.334	-159.8920
2180.000000	106.442	-161.6938
2200.000000	106.488	-162.6000
2240.000000	106.561	-164.4782
2270.000000	106.588	-165.9252
2300.000000	106.588	-167.3427
2330.000000	106.566	-168.6705
2360.000000	106.529	-169.8918
2400.000000	106.463	-171.3706
2430.000000	106.402	-172.3474
2470.000000	106.317	-173.4444
2500.000000	106.262	-174.1397
2540.000000	106.208	-174.9769
2580.000000	106.180	-175.8478
2620.000000	106.162	-176.9117
2650.000000	106.136	-177.8445
2690.000000	106.066	-179.1416
2720.000000	105.989	179.9477
2760.000000	105.869	178.8775
2800.000000	105.737	177.9561
2850.000000	105.563	176.9794
2900.000000	105.381	176.1835
2950.000000	105.193	175.6043
3000.000000	105.015	175.2047
3040.000000	104.881	174.9361
3070.000000	104.781	174.7524
3110.000000	104.645	174.5482
3150.000000	104.506	174.3962
3200.000000	104.327	174.2773
3250.000000	104.136	174.2818
3300.000000	103.934	174.4963
3350.000000	103.733	174.9963
3400.000000	103.553	175.7499
3450.000000	103.399	176.6771
3500.000000	103.272	177.7552
3550.000000	103.179	178.9543
3600.000000	103.125	-179.8098
3650.000000	103.103	-178.6173
3700.000000	103.103	-177.4884
3750.000000	103.119	-176.3924
3820.000000	103.168	-174.8955
3870.000000	103.221	-173.8351
3950.000000	103.351	-172.1029
4000.000000	103.472	-171.0593
4060.000000	103.652	-169.9525
4120.000000	103.862	-169.0435
4180.000000	104.094	-168.3382
4250.000000	104.387	-167.7810
4310.000000	104.655	-167.4991
4370.000000	104.947	-167.4146
4440.000000	105.319	-167.6927
4500.000000	105.649	-168.3575
4550.000000	105.920	-169.2502
4620.000000	106.273	-171.0482
4680.000000	106.530	-173.0630
4750.000000	106.759	-175.8643
4820.000000	106.898	-179.0508
4870.000000	106.932	178.5166
4940.000000	106.880	175.0737
5000.000000	106.741	172.2717
5080.000000	106.434	169.0663
5150.000000	106.084	166.9872
5220.000000	105.703	165.6372
5300.000000	105.280	164.8684
5380.000000	104.912	164.6939
5450.000000	104.653	164.8016
5520.000000	104.458	164.9537
5600.000000	104.307	164.9081
5700.000000	104.172	164.0760
5800.000000	103.975	162.2191
5900.000000	103.588	159.9048
6000.000000	102.972	158.2426
6080.000000	102.357	157.9901
6150.000000	101.781	158.7002
6220.000000	101.215	160.2263
6300.000000	100.623	162.8164
6400.000000	100.012	167.0270
6500.000000	99.584	171.9424
6600.000000	99.357	177.1762
6700.000000	99.320	-177.6007
6800.000000	99.450	-172.6258
6900.000000	99.715	-168.0462
7000.000000	100.091	-163.9094
7100.000000	100.568	-160.1880
7200.000000	101.158	-156.8717
7300.000000	101.879	-154.0811
7400.000000	102.730	-152.0972
7500.000000	103.678	-151.2913
7620.000000	104.855	-152.4171
7750.000000	106.009	-156.8052
7880.000000	106.816	-164.5024
8000.000000	107.109	-173.4147
8120.000000	106.946	177.7693
8250.000000	106.357	170.0403
8380.000000	105.508	164.9054
8500.000000	104.636	162.3141
8620.000000	103.777	161.3308
8750.000000	102.921	161.5756
8850.000000	102.332	162.4652
9000.000000	101.582	164.6670
9120.000000	101.109	166.9479
9250.000000	100.731	169.7217
9380.000000	100.495	172.6248
9500.000000	100.404	175.2386
9620.000000	100.431	177.6306
9750.000000	100.589	179.7561
9880.000000	100.857	-178.9866
10000.000000	101.135	-178.9290
10150.000000	101.393	179.6456
10300.000000	101.448	177.3018
10440.000000	101.321	175.3476
10600.000000	101.123	174.0546
10750.000000	101.051	173.0400
10900.000000	101.072	170.8898
11060.000000	100.988	166.8054
11200.000000	100.674	162.4200
11380.000000	99.876	157.4775
11500.000000	99.139	155.4006
11720.000000	97.555	154.6251
11800.000000	96.951	155.2264
12060.000000	95.033	159.7548
12200.000000	94.066	163.6131
12410.000000	92.748	171.2154
12500.000000	92.257	175.1078
12650.000000	91.587	-177.7332
12800.000000	91.151	-170.0739
13150.000000	91.087	-152.4858
13200.000000	91.171	-150.1451
13400.000000	91.686	-141.3824
13600.000000	92.449	-133.6404
13800.000000	93.435	-127.0037
14000.000000	94.626	-121.6400
14300.000000	96.708	-116.7335
14500.000000	98.159	-116.2975
14750.000000	99.800	-119.7409
15000.000000	101.010	-127.3478
15250.000000	101.688	-137.1427
15500.000000	101.961	-146.6596
15750.000000	102.109	-154.7886
16000.000000	102.430	-162.5944
16250.000000	102.919	-172.9753
16500.000000	103.157	172.0217
16750.000000	102.701	154.2296
17000.000000	101.380	138.5006
17250.000000	99.307	128.7242
17500.000000	96.766	125.4851
17750.000000	94.114	126.9390
18000.000000	91.714	130.5573
18250.000000	89.800	134.3979
18500.000000	88.356	137.7190
18750.000000	87.247	140.5255
19000.000000	86.400	142.6276
19250.000000	85.765	143.3826
19500.000000	85.208	142.2766
19750.000000	84.518	139.7930
20000.000000	83.517	137.6639
