* Measurement data measured by REW V5.20.13
* Source: EXCL: Mic in at front panel (Pink) (Realtek(R) Audio), MICROPHONE (Master Volume), L, volume: 0.250
* Format: 256k Log Swept Sine, 1 sweep at -12.0 dBFS with no timing reference
* Dated: Oct 29, 2022 12:31:56 AM
* REW Settings:
*  C-weighting compensation: Off
*  Target level: 75.0 dB
* Note: BGVP Melody Balanced L
* Measurement: BGVP Melody Balanced L
* Smoothing: 1/12 octave
* Frequency Step: 1/48 octave
* Start Frequency: 20.000 Hz
*
* Freq(Hz)	SPL(dB)	Phase(degrees)
20.000000	96.226	-142.4411
20.299999	96.259	-142.9863
20.600000	96.291	-143.5210
20.900000	96.322	-144.0468
21.200001	96.352	-144.5631
21.400000	96.371	-144.9013
21.799999	96.407	-145.5618
22.000000	96.424	-145.8839
22.400000	96.458	-146.5128
22.700001	96.482	-146.9728
23.000000	96.505	-147.4246
23.299999	96.528	-147.8689
23.600000	96.550	-148.3050
24.000000	96.578	-148.8729
24.299999	96.597	-149.2884
24.700001	96.623	-149.8296
25.000000	96.642	-150.2276
25.400000	96.666	-150.7495
25.799999	96.688	-151.2613
26.200001	96.710	-151.7607
26.500000	96.725	-152.1255
26.900000	96.744	-152.5985
27.200001	96.759	-152.9439
27.600000	96.778	-153.3938
28.000000	96.796	-153.8330
28.500000	96.819	-154.3679
29.000000	96.842	-154.8884
29.500000	96.864	-155.3981
30.000000	96.885	-155.9009
30.400000	96.900	-156.2968
30.700001	96.910	-156.5877
31.100000	96.922	-156.9644
31.500000	96.933	-157.3270
32.000000	96.947	-157.7635
32.500000	96.961	-158.1887
33.000000	96.975	-158.6085
33.500000	96.988	-159.0230
34.000000	97.000	-159.4305
34.500000	97.012	-159.8321
35.000000	97.023	-160.2321
35.500000	97.034	-160.6329
36.000000	97.044	-161.0322
36.500000	97.052	-161.4242
37.000000	97.058	-161.8036
37.500000	97.065	-162.1684
38.200001	97.074	-162.6550
38.700001	97.080	-162.9861
39.500000	97.093	-163.4958
40.000000	97.102	-163.8111
40.599998	97.111	-164.1926
41.200001	97.118	-164.5725
41.799999	97.121	-164.9384
42.500000	97.123	-165.3370
43.099998	97.124	-165.6587
43.700001	97.125	-165.9720
44.400002	97.127	-166.3342
45.000000	97.128	-166.6436
45.500000	97.129	-166.9009
46.200001	97.130	-167.2603
46.799999	97.131	-167.5665
47.500000	97.130	-167.9177
48.200001	97.130	-168.2566
48.700001	97.129	-168.4891
49.400002	97.130	-168.8039
50.000000	97.130	-169.0688
50.799999	97.129	-169.4115
51.500000	97.126	-169.6818
52.200001	97.125	-169.9131
53.000000	97.128	-170.1486
53.799999	97.136	-170.3851
54.500000	97.144	-170.6025
55.200001	97.152	-170.8281
56.000000	97.161	-171.0962
57.000000	97.171	-171.4526
58.000000	97.178	-171.8343
59.000000	97.182	-172.2377
60.000000	97.183	-172.6606
60.799999	97.180	-172.9979
61.500000	97.176	-173.2747
62.200001	97.172	-173.5255
63.000000	97.169	-173.7806
64.000000	97.171	-174.0611
65.000000	97.176	-174.3092
66.000000	97.185	-174.5399
67.000000	97.196	-174.7887
68.000000	97.202	-175.0982
69.000000	97.192	-175.4521
70.000000	97.166	-175.7631
71.000000	97.137	-175.9822
72.000000	97.122	-176.1695
73.000000	97.118	-176.4097
74.000000	97.114	-176.7059
75.000000	97.108	-177.0012
76.199997	97.102	-177.3155
77.500000	97.101	-177.6304
78.800003	97.102	-177.9527
80.000000	97.102	-178.2698
81.199997	97.101	-178.6122
82.500000	97.097	-179.0061
83.800003	97.089	-179.4039
85.000000	97.078	-179.7609
86.199997	97.060	179.9056
87.500000	97.034	179.5959
88.500000	97.010	179.3966
90.000000	96.977	179.1274
91.199997	96.953	178.9194
92.500000	96.930	178.7085
93.800003	96.913	178.5161
95.000000	96.902	178.3478
96.199997	96.893	178.1752
97.500000	96.883	177.9660
98.800003	96.871	177.7241
100.000000	96.858	177.4805
101.500000	96.841	177.1803
103.000000	96.828	176.9144
104.400002	96.816	176.7010
106.000000	96.801	176.4738
107.500000	96.781	176.2452
109.000000	96.762	175.9877
110.599998	96.746	175.6995
112.000000	96.734	175.4718
113.800003	96.706	175.2679
115.000000	96.671	175.2017
117.199997	96.573	175.2212
118.000000	96.541	175.2635
120.599998	96.537	175.2490
122.000000	96.597	174.9537
124.099998	96.679	174.2614
125.000000	96.688	173.9960
126.500000	96.662	173.7368
128.000000	96.606	173.6832
131.500000	96.478	173.5824
132.000000	96.465	173.5355
134.000000	96.428	173.2927
136.000000	96.408	173.0026
138.000000	96.389	172.7008
140.000000	96.369	172.4234
143.000000	96.341	172.0906
145.000000	96.315	171.8995
147.500000	96.269	171.6024
150.000000	96.218	171.1766
152.500000	96.166	170.7680
155.000000	96.114	170.6301
157.500000	96.072	170.7392
160.000000	96.043	170.8353
162.500000	96.024	170.8133
165.000000	96.008	170.7156
167.500000	95.985	170.5862
170.000000	95.951	170.4532
172.500000	95.916	170.3308
175.000000	95.886	170.2198
177.500000	95.859	170.1112
180.000000	95.838	169.9785
182.500000	95.823	169.8055
185.000000	95.805	169.6166
187.500000	95.777	169.4471
190.000000	95.740	169.2982
192.500000	95.702	169.1492
195.000000	95.665	168.9947
197.500000	95.630	168.8440
200.000000	95.594	168.7114
203.000000	95.553	168.5886
206.000000	95.514	168.4835
209.000000	95.477	168.3570
212.000000	95.437	168.2109
214.000000	95.409	168.1211
218.000000	95.349	168.0005
220.000000	95.319	167.9662
224.000000	95.264	167.9042
227.000000	95.226	167.8422
230.000000	95.189	167.7698
233.000000	95.152	167.6945
236.000000	95.116	167.6157
240.000000	95.067	167.5032
243.000000	95.027	167.4212
247.000000	94.969	167.3367
250.000000	94.923	167.3099
254.000000	94.865	167.3367
258.000000	94.818	167.3915
262.000000	94.777	167.3963
265.000000	94.745	167.3637
269.000000	94.697	167.3255
272.000000	94.658	167.3292
276.000000	94.609	167.3730
280.000000	94.565	167.4334
285.000000	94.521	167.4922
290.000000	94.484	167.4717
295.000000	94.440	167.3636
300.000000	94.383	167.2589
304.000000	94.331	167.2173
307.000000	94.293	167.2065
311.000000	94.242	167.2050
315.000000	94.190	167.2110
320.000000	94.124	167.2433
325.000000	94.058	167.3203
330.000000	93.997	167.4268
335.000000	93.941	167.5343
340.000000	93.887	167.6274
345.000000	93.831	167.7164
350.000000	93.774	167.8179
355.000000	93.718	167.9343
360.000000	93.663	168.0604
365.000000	93.609	168.1935
370.000000	93.556	168.3344
375.000000	93.503	168.4847
382.000000	93.431	168.7105
387.000000	93.380	168.8810
395.000000	93.300	169.1683
400.000000	93.252	169.3544
406.000000	93.196	169.5771
412.000000	93.141	169.7970
418.000000	93.084	170.0290
425.000000	93.020	170.3388
431.000000	92.969	170.6308
437.000000	92.924	170.9217
444.000000	92.877	171.2421
450.000000	92.841	171.4857
455.000000	92.812	171.6497
462.000000	92.763	171.8330
468.000000	92.712	172.0010
475.000000	92.648	172.2502
482.000000	92.585	172.5359
487.000000	92.540	172.7476
494.000000	92.476	173.0693
500.000000	92.423	173.3818
508.000000	92.358	173.8183
515.000000	92.305	174.1886
522.000000	92.251	174.5576
530.000000	92.189	175.0081
538.000000	92.131	175.4902
545.000000	92.082	175.9199
552.000000	92.035	176.3523
560.000000	91.985	176.8425
570.000000	91.923	177.4440
580.000000	91.860	178.0596
590.000000	91.796	178.7056
600.000000	91.735	179.3918
608.000000	91.689	179.9607
615.000000	91.651	-179.5348
622.000000	91.613	-179.0146
630.000000	91.571	-178.3837
640.000000	91.527	-177.5518
650.000000	91.494	-176.7029
660.000000	91.474	-175.8663
670.000000	91.464	-175.1012
680.000000	91.451	-174.4114
690.000000	91.430	-173.7356
700.000000	91.404	-173.0256
710.000000	91.380	-172.2695
720.000000	91.359	-171.4857
730.000000	91.341	-170.6841
740.000000	91.327	-169.8610
750.000000	91.318	-169.0139
762.000000	91.313	-167.9673
775.000000	91.320	-166.8074
788.000000	91.338	-165.6353
800.000000	91.366	-164.5412
812.000000	91.409	-163.4469
825.000000	91.476	-162.3305
838.000000	91.553	-161.3518
850.000000	91.620	-160.5453
862.000000	91.682	-159.7739
875.000000	91.746	-158.9440
885.000000	91.797	-158.3069
900.000000	91.875	-157.3700
912.000000	91.940	-156.6323
925.000000	92.014	-155.8451
938.000000	92.092	-155.0873
950.000000	92.167	-154.4243
962.000000	92.240	-153.7893
975.000000	92.318	-153.1179
988.000000	92.396	-152.4541
1000.000000	92.467	-151.8381
1015.000000	92.560	-151.0433
1030.000000	92.664	-150.2381
1044.000000	92.773	-149.5365
1060.000000	92.902	-148.8489
1075.000000	93.018	-148.2844
1090.000000	93.129	-147.7461
1106.000000	93.245	-147.1879
1120.000000	93.348	-146.7197
1138.000000	93.480	-146.1521
1150.000000	93.567	-145.7938
1172.000000	93.724	-145.1593
1180.000000	93.782	-144.9303
1206.000000	93.979	-144.2419
1220.000000	94.087	-143.9556
1241.000000	94.236	-143.6224
1250.000000	94.295	-143.4924
1265.000000	94.387	-143.2718
1280.000000	94.474	-143.0381
1315.000000	94.670	-142.4389
1320.000000	94.697	-142.3513
1340.000000	94.806	-142.0027
1360.000000	94.908	-141.6376
1380.000000	95.008	-141.2206
1400.000000	95.112	-140.7312
1430.000000	95.295	-139.9699
1450.000000	95.426	-139.5409
1475.000000	95.588	-139.0805
1500.000000	95.743	-138.6465
1525.000000	95.896	-138.1965
1550.000000	96.051	-137.7027
1575.000000	96.220	-137.1799
1600.000000	96.406	-136.7213
1625.000000	96.594	-136.3810
1650.000000	96.776	-136.1157
1675.000000	96.953	-135.8763
1700.000000	97.129	-135.6500
1725.000000	97.304	-135.4444
1750.000000	97.477	-135.2416
1775.000000	97.651	-135.0044
1800.000000	97.836	-134.7428
1825.000000	98.036	-134.5300
1850.000000	98.241	-134.4106
1875.000000	98.444	-134.3735
1900.000000	98.644	-134.3855
1925.000000	98.842	-134.4101
1950.000000	99.046	-134.4336
1975.000000	99.260	-134.4943
2000.000000	99.481	-134.6448
2030.000000	99.746	-134.9555
2060.000000	100.007	-135.3796
2090.000000	100.266	-135.9097
2120.000000	100.518	-136.5556
2140.000000	100.680	-137.0376
2180.000000	100.992	-138.0644
2200.000000	101.147	-138.6102
2240.000000	101.453	-139.8032
2270.000000	101.678	-140.7925
2300.000000	101.901	-141.8654
2330.000000	102.124	-143.0459
2360.000000	102.343	-144.3988
2400.000000	102.606	-146.5512
2430.000000	102.760	-148.3644
2470.000000	102.898	-150.8373
2500.000000	102.958	-152.5958
2540.000000	103.003	-154.6712
2580.000000	103.048	-156.4618
2620.000000	103.113	-158.2106
2650.000000	103.163	-159.6260
2690.000000	103.208	-161.6659
2720.000000	103.216	-163.2468
2760.000000	103.194	-165.3437
2800.000000	103.134	-167.3836
2850.000000	103.009	-169.7843
2900.000000	102.831	-171.9268
2950.000000	102.608	-173.6715
3000.000000	102.368	-174.9605
3040.000000	102.177	-175.7011
3070.000000	102.038	-176.1000
3110.000000	101.868	-176.4401
3150.000000	101.722	-176.6288
3200.000000	101.577	-176.8088
3250.000000	101.455	-177.0456
3300.000000	101.331	-177.3294
3350.000000	101.192	-177.5334
3400.000000	101.048	-177.5597
3450.000000	100.907	-177.3743
3500.000000	100.784	-176.9619
3550.000000	100.693	-176.3757
3600.000000	100.643	-175.7331
3650.000000	100.624	-175.1281
3700.000000	100.627	-174.5795
3750.000000	100.646	-174.0559
3820.000000	100.707	-173.3664
3870.000000	100.775	-172.9191
3950.000000	100.939	-172.3253
4000.000000	101.082	-172.1517
4060.000000	101.282	-172.3231
4120.000000	101.486	-173.0404
4180.000000	101.650	-174.4050
4250.000000	101.696	-176.6829
4310.000000	101.523	-178.3763
4370.000000	101.189	-178.3990
4440.000000	100.940	-175.5257
4500.000000	101.158	-172.1559
4550.000000	101.604	-170.2511
4620.000000	102.348	-169.9330
4680.000000	102.924	-171.5604
4750.000000	103.454	-174.9036
4820.000000	103.824	-179.2148
4870.000000	103.989	177.3257
4940.000000	104.077	172.2007
5000.000000	104.022	167.7593
5080.000000	103.766	162.1414
5150.000000	103.396	157.8220
5220.000000	102.926	154.2204
5300.000000	102.307	151.0171
5380.000000	101.639	148.7393
5450.000000	101.035	147.4440
5520.000000	100.429	146.7661
5600.000000	99.753	146.6781
5700.000000	98.965	147.3921
5800.000000	98.256	148.7633
5900.000000	97.622	150.6255
6000.000000	97.059	152.9373
6080.000000	96.666	155.0569
6150.000000	96.366	157.0525
6220.000000	96.106	159.1373
6300.000000	95.852	161.6115
6400.000000	95.600	164.8473
6500.000000	95.425	168.2146
6600.000000	95.332	171.6370
6700.000000	95.320	175.0550
6800.000000	95.389	178.4588
6900.000000	95.549	-178.1835
7000.000000	95.809	-174.9577
7100.000000	96.176	-171.9543
7200.000000	96.657	-169.2428
7300.000000	97.272	-166.9388
7400.000000	98.033	-165.2627
7500.000000	98.933	-164.5281
7620.000000	100.156	-165.4602
7750.000000	101.519	-169.7208
7880.000000	102.658	-178.4495
8000.000000	103.246	169.6327
8120.000000	103.217	155.8518
8250.000000	102.467	142.0629
8380.000000	101.114	132.0781
8500.000000	99.543	126.8515
8620.000000	97.868	124.8328
8750.000000	96.113	125.1904
8850.000000	94.871	126.6895
9000.000000	93.226	130.2592
9120.000000	92.101	133.8632
9250.000000	91.052	138.2589
9380.000000	90.158	143.0358
9500.000000	89.455	147.6830
9620.000000	88.859	152.4830
9750.000000	88.321	157.8225
9880.000000	87.891	163.2749
10000.000000	87.586	168.3641
10150.000000	87.327	174.7725
10300.000000	87.208	-178.7977
10440.000000	87.230	-172.8402
10600.000000	87.429	-166.1370
10750.000000	87.814	-160.0340
10900.000000	88.432	-154.2504
11060.000000	89.412	-148.6684
11200.000000	90.585	-144.6588
11380.000000	92.489	-141.7269
11500.000000	93.894	-142.1032
11720.000000	96.248	-150.6701
11800.000000	96.878	-156.8513
12060.000000	97.484	175.1104
12200.000000	96.784	160.3428
12410.000000	94.647	146.1777
12500.000000	93.471	143.3651
12650.000000	91.364	142.0912
12800.000000	89.258	143.7763
13150.000000	85.084	153.4052
13200.000000	84.598	155.1292
13400.000000	82.916	162.4956
13600.000000	81.592	170.3675
13800.000000	80.555	178.5164
14000.000000	79.757	-173.1916
14300.000000	78.944	-160.6731
14500.000000	78.644	-152.3833
14750.000000	78.546	-142.2368
15000.000000	78.788	-132.5320
15250.000000	79.427	-123.6280
15500.000000	80.510	-116.1975
15750.000000	81.986	-111.4246
16000.000000	83.646	-110.9137
16250.000000	85.170	-116.3533
16500.000000	86.099	-128.8472
16750.000000	85.995	-145.4775
17000.000000	84.767	-159.3354
17250.000000	82.686	-165.9269
17500.000000	80.163	-165.5697
17750.000000	77.597	-160.6573
18000.000000	75.294	-153.3241
18250.000000	73.424	-144.9232
18500.000000	72.018	-136.2982
18750.000000	71.023	-128.0764
19000.000000	70.340	-120.7861
19250.000000	69.841	-114.8267
19500.000000	69.368	-110.2847
19750.000000	68.765	-106.6732
20000.000000	67.911	-102.8532
