* Measurement data measured by REW V5.20.11
* Source: Mic in at front panel (Pink) (Realtek(R) Audio), MICROPHONE (Master Volume), L, volume: 0.250
* Format: 256k Log Swept Sine, 1 sweep at -12.0 dBFS with no timing reference
* Dated: Sep 1, 2022 4:41:10 PM
* REW Settings:
*  C-weighting compensation: Off
*  Target level: 75.0 dB
* Note: CCA PLA 13 L
* Measurement: KZ EDX Ultra Sep 1
* Smoothing: 1/12 octave
* Frequency Step: 1/48 octave
* Start Frequency: 20.000 Hz
*
* Freq(Hz)	SPL(dB)	Phase(degrees)
20.000000	103.049	5.7896
20.299999	103.038	5.1534
20.600000	103.026	4.5314
20.900000	103.013	3.9230
21.200001	103.000	3.3259
21.400000	102.991	2.9321
21.799999	102.972	2.1544
22.000000	102.961	1.7715
22.400000	102.939	1.0231
22.700001	102.922	0.4805
23.000000	102.905	-0.0463
23.299999	102.889	-0.5629
23.600000	102.872	-1.0753
24.000000	102.850	-1.7551
24.299999	102.831	-2.2573
24.700001	102.803	-2.9012
25.000000	102.781	-3.3577
25.400000	102.754	-3.9377
25.799999	102.731	-4.5156
26.200001	102.707	-5.1220
26.500000	102.685	-5.5927
26.900000	102.646	-6.2056
27.200001	102.609	-6.6158
27.600000	102.558	-7.0604
28.000000	102.517	-7.3998
28.500000	102.492	-7.7925
29.000000	102.487	-8.3123
29.500000	102.479	-9.0030
30.000000	102.448	-9.7537
30.400000	102.411	-10.3007
30.700001	102.381	-10.6583
31.100000	102.346	-11.0840
31.500000	102.319	-11.4932
32.000000	102.294	-12.0407
32.500000	102.268	-12.6418
33.000000	102.236	-13.2620
33.500000	102.198	-13.8657
34.000000	102.157	-14.4387
34.500000	102.114	-14.9818
35.000000	102.069	-15.4968
35.500000	102.024	-15.9841
36.000000	101.980	-16.4476
36.500000	101.935	-16.8954
37.000000	101.891	-17.3373
37.500000	101.847	-17.7784
38.200001	101.781	-18.3909
38.700001	101.732	-18.8185
39.500000	101.652	-19.4862
40.000000	101.601	-19.8956
40.599998	101.539	-20.3712
41.200001	101.478	-20.8190
41.799999	101.421	-21.2468
42.500000	101.360	-21.7467
43.099998	101.309	-22.1819
43.700001	101.257	-22.6105
44.400002	101.198	-23.0917
45.000000	101.146	-23.4889
45.500000	101.104	-23.8090
46.200001	101.043	-24.2372
46.799999	100.991	-24.5892
47.500000	100.929	-24.9921
48.200001	100.866	-25.3856
48.700001	100.819	-25.6553
49.400002	100.754	-26.0143
50.000000	100.699	-26.3123
50.799999	100.629	-26.7134
51.500000	100.568	-27.0724
52.200001	100.506	-27.4290
53.000000	100.434	-27.8176
53.799999	100.363	-28.1784
54.500000	100.302	-28.4708
55.200001	100.243	-28.7438
56.000000	100.180	-29.0421
57.000000	100.105	-29.4238
58.000000	100.031	-29.8406
59.000000	99.951	-30.2761
60.000000	99.866	-30.6897
60.799999	99.796	-30.9958
61.500000	99.737	-31.2506
62.200001	99.678	-31.4937
63.000000	99.612	-31.7582
64.000000	99.534	-32.0848
65.000000	99.455	-32.4175
66.000000	99.372	-32.7306
67.000000	99.289	-33.0057
68.000000	99.207	-33.2611
69.000000	99.127	-33.5140
70.000000	99.047	-33.7665
71.000000	98.968	-34.0142
72.000000	98.889	-34.2552
73.000000	98.813	-34.4897
74.000000	98.739	-34.7131
75.000000	98.669	-34.9257
76.199997	98.589	-35.1813
77.500000	98.504	-35.4690
78.800003	98.419	-35.7579
80.000000	98.340	-36.0273
81.199997	98.259	-36.3058
82.500000	98.167	-36.6118
83.800003	98.068	-36.9094
85.000000	97.970	-37.1602
86.199997	97.868	-37.3729
87.500000	97.757	-37.5540
88.500000	97.674	-37.6611
90.000000	97.557	-37.7860
91.199997	97.470	-37.8665
92.500000	97.379	-37.9318
93.800003	97.290	-37.9777
95.000000	97.208	-38.0256
96.199997	97.124	-38.0955
97.500000	97.031	-38.1844
98.800003	96.939	-38.2576
100.000000	96.860	-38.2908
101.500000	96.772	-38.2817
103.000000	96.692	-38.2281
104.400002	96.621	-38.1583
106.000000	96.543	-38.1035
107.500000	96.473	-38.1179
109.000000	96.406	-38.1967
110.599998	96.335	-38.3253
112.000000	96.263	-38.4758
113.800003	96.145	-38.7925
115.000000	96.045	-39.1385
117.199997	95.822	-40.0205
118.000000	95.734	-40.3147
120.599998	95.511	-40.4508
122.000000	95.481	-40.0745
124.099998	95.486	-39.4511
125.000000	95.475	-39.2189
126.500000	95.422	-38.9319
128.000000	95.324	-38.8406
131.500000	94.996	-39.1506
132.000000	94.953	-39.1642
134.000000	94.841	-39.0582
136.000000	94.812	-38.8875
138.000000	94.802	-38.6968
140.000000	94.772	-38.4757
143.000000	94.665	-38.2281
145.000000	94.571	-38.1576
147.500000	94.461	-38.2046
150.000000	94.358	-38.3422
152.500000	94.239	-38.3300
155.000000	94.116	-38.0717
157.500000	93.996	-37.7114
160.000000	93.881	-37.3719
162.500000	93.771	-37.1252
165.000000	93.657	-36.9268
167.500000	93.537	-36.6798
170.000000	93.414	-36.3389
172.500000	93.293	-35.8951
175.000000	93.180	-35.3470
177.500000	93.083	-34.6937
180.000000	93.011	-33.9425
182.500000	92.975	-33.1604
185.000000	92.977	-32.4797
187.500000	93.005	-32.0241
190.000000	93.037	-31.8413
192.500000	93.054	-31.8925
195.000000	93.045	-32.0869
197.500000	93.010	-32.3212
200.000000	92.957	-32.5149
203.000000	92.877	-32.6522
206.000000	92.789	-32.7109
209.000000	92.697	-32.7340
212.000000	92.601	-32.7191
214.000000	92.534	-32.6653
218.000000	92.400	-32.4194
220.000000	92.337	-32.2460
224.000000	92.220	-31.8780
227.000000	92.141	-31.6165
230.000000	92.066	-31.3679
233.000000	91.993	-31.1215
236.000000	91.920	-30.8699
240.000000	91.823	-30.5328
243.000000	91.749	-30.2783
247.000000	91.648	-29.9163
250.000000	91.573	-29.6108
254.000000	91.478	-29.1490
258.000000	91.397	-28.6659
262.000000	91.326	-28.2318
265.000000	91.274	-27.9430
269.000000	91.199	-27.5633
272.000000	91.142	-27.2589
276.000000	91.069	-26.8231
280.000000	91.002	-26.3697
285.000000	90.932	-25.8193
290.000000	90.872	-25.3571
295.000000	90.806	-24.9903
300.000000	90.729	-24.6271
304.000000	90.663	-24.3007
307.000000	90.615	-24.0394
311.000000	90.552	-23.6833
315.000000	90.490	-23.3256
320.000000	90.411	-22.8618
325.000000	90.335	-22.3621
330.000000	90.264	-21.8416
335.000000	90.201	-21.3262
340.000000	90.140	-20.8306
345.000000	90.080	-20.3501
350.000000	90.019	-19.8695
355.000000	89.960	-19.3820
360.000000	89.902	-18.8892
365.000000	89.847	-18.3949
370.000000	89.794	-17.9000
375.000000	89.742	-17.4032
382.000000	89.673	-16.7045
387.000000	89.625	-16.2056
395.000000	89.553	-15.4092
400.000000	89.511	-14.9130
406.000000	89.463	-14.3256
412.000000	89.416	-13.7500
418.000000	89.368	-13.1699
425.000000	89.315	-12.4628
431.000000	89.275	-11.8387
437.000000	89.242	-11.2246
444.000000	89.210	-10.5381
450.000000	89.188	-9.9909
455.000000	89.170	-9.5804
462.000000	89.138	-9.0608
468.000000	89.102	-8.6126
475.000000	89.056	-8.0467
482.000000	89.013	-7.4536
487.000000	88.982	-7.0279
494.000000	88.939	-6.4142
500.000000	88.903	-5.8591
508.000000	88.864	-5.1099
515.000000	88.833	-4.4757
522.000000	88.801	-3.8513
530.000000	88.765	-3.1198
538.000000	88.733	-2.3691
545.000000	88.709	-1.7133
552.000000	88.689	-1.0616
560.000000	88.668	-0.3312
570.000000	88.644	0.5530
580.000000	88.619	1.4307
590.000000	88.595	2.3198
600.000000	88.572	3.2324
608.000000	88.559	3.9674
615.000000	88.548	4.6041
622.000000	88.538	5.2452
630.000000	88.527	6.0029
640.000000	88.522	6.9799
650.000000	88.527	7.9601
660.000000	88.544	8.9158
670.000000	88.571	9.7897
680.000000	88.594	10.5778
690.000000	88.609	11.3394
700.000000	88.620	12.1220
710.000000	88.631	12.9354
720.000000	88.646	13.7587
730.000000	88.664	14.5799
740.000000	88.684	15.4021
750.000000	88.706	16.2291
762.000000	88.737	17.2296
775.000000	88.776	18.3188
788.000000	88.822	19.4075
800.000000	88.870	20.4213
812.000000	88.930	21.4405
825.000000	89.009	22.4913
838.000000	89.095	23.4259
850.000000	89.169	24.2123
862.000000	89.236	24.9834
875.000000	89.307	25.8336
885.000000	89.363	26.4995
900.000000	89.451	27.4988
912.000000	89.525	28.2993
925.000000	89.612	29.1631
938.000000	89.704	30.0040
950.000000	89.794	30.7477
962.000000	89.885	31.4655
975.000000	89.985	32.2255
988.000000	90.088	32.9713
1000.000000	90.186	33.6510
1015.000000	90.316	34.5002
1030.000000	90.461	35.3254
1044.000000	90.609	36.0106
1060.000000	90.783	36.6335
1075.000000	90.939	37.0889
1090.000000	91.087	37.4701
1106.000000	91.237	37.8151
1120.000000	91.360	38.0732
1138.000000	91.507	38.3685
1150.000000	91.598	38.5591
1172.000000	91.753	38.9409
1180.000000	91.807	39.1001
1206.000000	91.994	39.6502
1220.000000	92.099	39.9092
1241.000000	92.251	40.2364
1250.000000	92.313	40.3692
1265.000000	92.415	40.5943
1280.000000	92.514	40.8266
1315.000000	92.749	41.3771
1320.000000	92.783	41.4507
1340.000000	92.918	41.7224
1360.000000	93.048	41.9716
1380.000000	93.173	42.2307
1400.000000	93.298	42.5268
1430.000000	93.496	42.9718
1450.000000	93.629	43.2082
1475.000000	93.784	43.4930
1500.000000	93.933	43.8484
1525.000000	94.088	44.3041
1550.000000	94.260	44.8412
1575.000000	94.461	45.3930
1600.000000	94.688	45.8319
1625.000000	94.925	46.0908
1650.000000	95.158	46.2135
1675.000000	95.387	46.2536
1700.000000	95.616	46.2288
1725.000000	95.843	46.1365
1750.000000	96.066	45.9982
1775.000000	96.290	45.8527
1800.000000	96.525	45.6907
1825.000000	96.772	45.4376
1850.000000	97.023	45.0461
1875.000000	97.272	44.5238
1900.000000	97.515	43.8976
1925.000000	97.755	43.1923
1950.000000	97.997	42.4091
1975.000000	98.242	41.5023
2000.000000	98.483	40.4181
2030.000000	98.755	38.8752
2060.000000	98.998	37.1143
2090.000000	99.207	35.1828
2120.000000	99.377	33.1254
2140.000000	99.467	31.7174
2180.000000	99.598	28.8965
2200.000000	99.641	27.4881
2240.000000	99.675	24.6981
2270.000000	99.647	22.7394
2300.000000	99.584	21.0377
2330.000000	99.508	19.6658
2360.000000	99.443	18.5699
2400.000000	99.398	17.2872
2430.000000	99.387	16.2991
2470.000000	99.380	14.8415
2500.000000	99.363	13.6533
2540.000000	99.313	12.0674
2580.000000	99.241	10.6176
2620.000000	99.165	9.2971
2650.000000	99.111	8.3420
2690.000000	99.037	7.0792
2720.000000	98.980	6.1338
2760.000000	98.901	4.8387
2800.000000	98.810	3.4592
2850.000000	98.657	1.6603
2900.000000	98.442	-0.0541
2950.000000	98.166	-1.4509
3000.000000	97.848	-2.3461
3040.000000	97.582	-2.6124
3070.000000	97.389	-2.5208
3110.000000	97.167	-2.0516
3150.000000	97.008	-1.3485
3200.000000	96.906	-0.4747
3250.000000	96.886	0.1099
3300.000000	96.908	0.2657
3350.000000	96.940	-0.0367
3400.000000	96.946	-0.7979
3450.000000	96.884	-1.8792
3500.000000	96.730	-2.8932
3550.000000	96.507	-3.4301
3600.000000	96.274	-3.3629
3650.000000	96.080	-2.8668
3700.000000	95.940	-2.1796
3750.000000	95.849	-1.4366
3820.000000	95.790	-0.4783
3870.000000	95.784	0.0764
3950.000000	95.819	0.7128
4000.000000	95.865	0.8953
4060.000000	95.925	0.8303
4120.000000	95.969	0.5024
4180.000000	95.988	0.0353
4250.000000	95.985	-0.5491
4310.000000	95.976	-1.0344
4370.000000	95.972	-1.5791
4440.000000	95.964	-2.4368
4500.000000	95.932	-3.3726
4550.000000	95.876	-4.2189
4620.000000	95.752	-5.3708
4680.000000	95.610	-6.2173
4750.000000	95.422	-6.9786
4820.000000	95.230	-7.5640
4870.000000	95.091	-7.9288
4940.000000	94.886	-8.3808
5000.000000	94.697	-8.6851
5080.000000	94.424	-8.8630
5150.000000	94.180	-8.7208
5220.000000	93.956	-8.3442
5300.000000	93.738	-7.7914
5380.000000	93.554	-7.2780
5450.000000	93.408	-6.9397
5520.000000	93.262	-6.7074
5600.000000	93.083	-6.5662
5700.000000	92.813	-6.5326
5800.000000	92.450	-6.3266
5900.000000	92.000	-5.3545
6000.000000	91.551	-3.3291
6080.000000	91.258	-1.1720
6150.000000	91.062	0.8657
6220.000000	90.911	2.9166
6300.000000	90.773	5.2712
6400.000000	90.642	8.3553
6500.000000	90.578	11.6317
6600.000000	90.599	14.9305
6700.000000	90.685	18.0975
6800.000000	90.817	21.1697
6900.000000	90.999	24.2784
7000.000000	91.256	27.4871
7100.000000	91.624	30.7225
7200.000000	92.128	33.8000
7300.000000	92.779	36.4487
7400.000000	93.563	38.3230
7500.000000	94.436	39.0502
7620.000000	95.507	37.9444
7750.000000	96.530	33.9175
7880.000000	97.220	27.1920
8000.000000	97.447	19.7936
8120.000000	97.287	12.8923
8250.000000	96.799	7.3320
8380.000000	96.163	4.1783
8500.000000	95.598	3.0632
8620.000000	95.154	2.9973
8750.000000	94.837	3.3266
8850.000000	94.684	3.5237
9000.000000	94.526	3.5563
9120.000000	94.421	3.4832
9250.000000	94.332	3.5478
9380.000000	94.328	3.7486
9500.000000	94.437	3.6383
9620.000000	94.626	2.6868
9750.000000	94.823	0.3196
9880.000000	94.899	-3.3607
10000.000000	94.788	-7.4464
10150.000000	94.368	-12.4650
10300.000000	93.673	-16.3440
10440.000000	92.859	-18.4446
10600.000000	91.845	-19.0243
10750.000000	90.900	-18.0905
10900.000000	90.010	-16.0399
11060.000000	89.146	-12.7948
11200.000000	88.485	-9.1462
11380.000000	87.815	-3.5586
11500.000000	87.512	0.5076
11720.000000	87.276	7.9315
11800.000000	87.279	10.4647
12060.000000	87.512	17.7235
12200.000000	87.732	20.9705
12410.000000	88.128	25.0037
12500.000000	88.310	26.4415
12650.000000	88.615	28.5093
12800.000000	88.915	30.2780
13150.000000	89.634	34.1385
13200.000000	89.755	34.7323
13400.000000	90.348	37.2072
13600.000000	91.178	39.4645
13800.000000	92.242	40.6502
14000.000000	93.424	39.7413
14300.000000	94.996	32.8515
14500.000000	95.641	24.7796
14750.000000	95.810	13.1781
15000.000000	95.330	3.4471
15250.000000	94.515	-2.0775
15500.000000	93.865	-3.8361
15750.000000	93.818	-4.4045
16000.000000	94.390	-7.1580
16250.000000	95.132	-15.0082
16500.000000	95.460	-28.6067
16750.000000	94.970	-44.7031
17000.000000	93.578	-57.8954
17250.000000	91.490	-64.9415
17500.000000	89.045	-66.1127
17750.000000	86.584	-63.3190
18000.000000	84.377	-58.3855
18250.000000	82.560	-52.4908
18500.000000	81.140	-46.2325
18750.000000	80.059	-39.9120
19000.000000	79.255	-33.7758
19250.000000	78.658	-28.0280
19500.000000	78.190	-22.7164
19750.000000	77.786	-17.7208
20000.000000	77.410	-12.8807
