* Measurement data measured by REW V5.20.4
* Source: Mic in at front panel (Pink) (Realtek(R) Audio), MICROPHONE (Master Volume), L, volume: 0.250
* Format: 256k Log Swept Sine, 1 sweep at -12.0 dBFS with no timing reference
* Dated: May 2, 2022 5:13:25 PM
* REW Settings:
*  C-weighting compensation: Off
*  Target level: 75.0 dB
* Note: CCA CRA+ L vent
* Measurement: EJ07M R May 2
* Smoothing: 1/12 octave
* Frequency Step: 1/48 octave
* Start Frequency: 20.000 Hz
*
* Freq(Hz)	SPL(dB)	Phase(degrees)
20.000000	107.219	40.5912
20.299999	107.248	39.8239
20.600000	107.270	39.0734
20.900000	107.288	38.3417
21.200001	107.304	37.6294
21.400000	107.316	37.1644
21.799999	107.342	36.2552
22.000000	107.357	35.8094
22.400000	107.390	34.9320
22.700001	107.416	34.2851
23.000000	107.441	33.6479
23.299999	107.467	33.0214
23.600000	107.491	32.4066
24.000000	107.523	31.6049
24.299999	107.545	31.0162
24.700001	107.571	30.2451
25.000000	107.588	29.6757
25.400000	107.607	28.9273
25.799999	107.623	28.1931
26.200001	107.638	27.4763
26.500000	107.648	26.9512
26.900000	107.658	26.2675
27.200001	107.663	25.7654
27.600000	107.669	25.1071
28.000000	107.674	24.4589
28.500000	107.680	23.6613
29.000000	107.688	22.8804
29.500000	107.696	22.1196
30.000000	107.703	21.3792
30.400000	107.709	20.7996
30.700001	107.715	20.3709
31.100000	107.723	19.8064
31.500000	107.730	19.2498
32.000000	107.735	18.5660
32.500000	107.736	17.8962
33.000000	107.736	17.2394
33.500000	107.736	16.5936
34.000000	107.738	15.9568
34.500000	107.740	15.3293
35.000000	107.742	14.7125
35.500000	107.747	14.1074
36.000000	107.753	13.5138
36.500000	107.760	12.9310
37.000000	107.765	12.3585
37.500000	107.767	11.7959
38.200001	107.759	11.0244
38.700001	107.748	10.4852
39.500000	107.723	9.6447
40.000000	107.708	9.1340
40.599998	107.694	8.5370
41.200001	107.683	7.9591
41.799999	107.675	7.4001
42.500000	107.669	6.7639
43.099998	107.666	6.2236
43.700001	107.661	5.6877
44.400002	107.650	5.0778
45.000000	107.636	4.5747
45.500000	107.624	4.1682
46.200001	107.605	3.6122
46.799999	107.589	3.1429
47.500000	107.567	2.6014
48.200001	107.542	2.0652
48.700001	107.522	1.6851
49.400002	107.494	1.1581
50.000000	107.472	0.7137
50.799999	107.450	0.1364
51.500000	107.435	-0.3539
52.200001	107.420	-0.8337
53.000000	107.401	-1.3719
53.799999	107.379	-1.8934
54.500000	107.361	-2.3298
55.200001	107.345	-2.7506
56.000000	107.330	-3.2273
57.000000	107.311	-3.8381
58.000000	107.286	-4.4661
59.000000	107.254	-5.0892
60.000000	107.219	-5.6908
60.799999	107.191	-6.1576
61.500000	107.166	-6.5576
62.200001	107.143	-6.9491
63.000000	107.119	-7.3845
64.000000	107.090	-7.9090
65.000000	107.062	-8.4129
66.000000	107.033	-8.9020
67.000000	107.005	-9.3817
68.000000	106.975	-9.8522
69.000000	106.943	-10.3082
70.000000	106.907	-10.7482
71.000000	106.870	-11.1858
72.000000	106.835	-11.6416
73.000000	106.801	-12.1131
74.000000	106.768	-12.5791
75.000000	106.737	-13.0275
76.199997	106.699	-13.5447
77.500000	106.658	-14.0898
78.800003	106.616	-14.6300
80.000000	106.577	-15.1334
81.199997	106.536	-15.6497
82.500000	106.488	-16.2204
83.800003	106.435	-16.7831
85.000000	106.381	-17.2673
86.199997	106.321	-17.6947
87.500000	106.252	-18.0857
88.500000	106.199	-18.3428
90.000000	106.124	-18.6813
91.199997	106.073	-18.9287
92.500000	106.027	-19.1934
93.800003	105.991	-19.4744
95.000000	105.963	-19.7598
96.199997	105.937	-20.0762
97.500000	105.905	-20.4465
98.800003	105.865	-20.8245
100.000000	105.823	-21.1663
101.500000	105.769	-21.5774
103.000000	105.719	-21.9689
104.400002	105.676	-22.3215
106.000000	105.629	-22.7206
107.500000	105.583	-23.0975
109.000000	105.532	-23.4796
110.599998	105.473	-23.8953
112.000000	105.419	-24.2650
113.800003	105.347	-24.7372
115.000000	105.297	-25.0367
117.199997	105.200	-25.5180
118.000000	105.165	-25.6661
120.599998	105.061	-26.0556
122.000000	105.014	-26.2317
124.099998	104.952	-26.5029
125.000000	104.926	-26.6282
126.500000	104.881	-26.8488
128.000000	104.834	-27.0795
131.500000	104.714	-27.6246
132.000000	104.697	-27.7015
134.000000	104.632	-28.0079
136.000000	104.568	-28.3107
138.000000	104.502	-28.6007
140.000000	104.434	-28.8708
143.000000	104.336	-29.2523
145.000000	104.274	-29.5013
147.500000	104.194	-29.8080
150.000000	104.110	-30.0935
152.500000	104.028	-30.3293
155.000000	103.956	-30.5057
157.500000	103.894	-30.6533
160.000000	103.837	-30.8165
162.500000	103.781	-31.0126
165.000000	103.716	-31.2305
167.500000	103.635	-31.4438
170.000000	103.536	-31.6291
172.500000	103.426	-31.7819
175.000000	103.317	-31.9196
177.500000	103.217	-32.0597
180.000000	103.134	-32.2063
182.500000	103.072	-32.3553
185.000000	103.026	-32.5024
187.500000	102.988	-32.6435
190.000000	102.950	-32.7755
192.500000	102.908	-32.8975
195.000000	102.858	-33.0093
197.500000	102.801	-33.1086
200.000000	102.740	-33.1909
203.000000	102.668	-33.2679
206.000000	102.602	-33.3429
209.000000	102.535	-33.4401
212.000000	102.460	-33.5510
214.000000	102.408	-33.6158
218.000000	102.299	-33.6869
220.000000	102.248	-33.6925
224.000000	102.156	-33.6820
227.000000	102.096	-33.6816
230.000000	102.039	-33.6936
233.000000	101.985	-33.7145
236.000000	101.930	-33.7424
240.000000	101.855	-33.7926
243.000000	101.795	-33.8342
247.000000	101.711	-33.8676
250.000000	101.648	-33.8533
254.000000	101.569	-33.7678
258.000000	101.502	-33.6453
262.000000	101.444	-33.5568
265.000000	101.401	-33.5197
269.000000	101.340	-33.4702
272.000000	101.294	-33.4133
276.000000	101.237	-33.3130
280.000000	101.188	-33.2070
285.000000	101.142	-33.1124
290.000000	101.107	-33.1251
295.000000	101.064	-33.2467
300.000000	101.007	-33.3777
304.000000	100.959	-33.4443
307.000000	100.923	-33.4738
311.000000	100.874	-33.4991
315.000000	100.822	-33.5170
320.000000	100.752	-33.5189
325.000000	100.686	-33.4810
330.000000	100.625	-33.4156
335.000000	100.568	-33.3513
340.000000	100.511	-33.3051
345.000000	100.456	-33.2700
350.000000	100.403	-33.2297
355.000000	100.355	-33.1792
360.000000	100.307	-33.1218
365.000000	100.256	-33.0594
370.000000	100.204	-32.9904
375.000000	100.153	-32.9131
382.000000	100.087	-32.7931
387.000000	100.044	-32.7025
395.000000	99.978	-32.5519
400.000000	99.937	-32.4564
406.000000	99.889	-32.3476
412.000000	99.841	-32.2467
418.000000	99.792	-32.1376
425.000000	99.740	-31.9767
431.000000	99.703	-31.8181
437.000000	99.672	-31.6660
444.000000	99.641	-31.5139
450.000000	99.617	-31.4204
455.000000	99.598	-31.3848
462.000000	99.565	-31.3857
468.000000	99.529	-31.3804
475.000000	99.485	-31.3275
482.000000	99.442	-31.2435
487.000000	99.412	-31.1786
494.000000	99.366	-31.0660
500.000000	99.329	-30.9368
508.000000	99.288	-30.7510
515.000000	99.255	-30.6065
522.000000	99.222	-30.4687
530.000000	99.182	-30.2885
538.000000	99.145	-30.0815
545.000000	99.118	-29.8932
552.000000	99.094	-29.7012
560.000000	99.070	-29.4869
570.000000	99.045	-29.2383
580.000000	99.021	-28.9942
590.000000	98.996	-28.7477
600.000000	98.973	-28.4933
608.000000	98.961	-28.2936
615.000000	98.953	-28.1287
622.000000	98.944	-27.9604
630.000000	98.934	-27.7434
640.000000	98.926	-27.4417
650.000000	98.926	-27.1354
660.000000	98.938	-26.8506
670.000000	98.961	-26.6425
680.000000	98.982	-26.5134
690.000000	98.991	-26.4032
700.000000	98.994	-26.2652
710.000000	98.997	-26.0906
720.000000	99.004	-25.8998
730.000000	99.014	-25.7042
740.000000	99.026	-25.5013
750.000000	99.039	-25.2889
762.000000	99.058	-25.0220
775.000000	99.085	-24.7233
788.000000	99.118	-24.4197
800.000000	99.157	-24.1248
812.000000	99.208	-23.8195
825.000000	99.277	-23.5391
838.000000	99.352	-23.3740
850.000000	99.415	-23.2979
862.000000	99.470	-23.2383
875.000000	99.526	-23.1609
885.000000	99.572	-23.0924
900.000000	99.644	-22.9970
912.000000	99.706	-22.9290
925.000000	99.777	-22.8691
938.000000	99.853	-22.8446
950.000000	99.926	-22.8660
962.000000	99.999	-22.9237
975.000000	100.077	-23.0134
988.000000	100.155	-23.1239
1000.000000	100.226	-23.2367
1015.000000	100.314	-23.3752
1030.000000	100.406	-23.5270
1044.000000	100.496	-23.7322
1060.000000	100.595	-24.0798
1075.000000	100.674	-24.4611
1090.000000	100.740	-24.8173
1106.000000	100.805	-25.1268
1120.000000	100.862	-25.3273
1138.000000	100.939	-25.4921
1150.000000	100.993	-25.5563
1172.000000	101.108	-25.6185
1180.000000	101.157	-25.6340
1206.000000	101.347	-25.7648
1220.000000	101.462	-25.9515
1241.000000	101.630	-26.3774
1250.000000	101.698	-26.5904
1265.000000	101.805	-26.9622
1280.000000	101.907	-27.3434
1315.000000	102.137	-28.2476
1320.000000	102.170	-28.3811
1340.000000	102.299	-28.9301
1360.000000	102.425	-29.4832
1380.000000	102.548	-30.0044
1400.000000	102.675	-30.4696
1430.000000	102.897	-31.1596
1450.000000	103.058	-31.7076
1475.000000	103.265	-32.4763
1500.000000	103.480	-33.2777
1525.000000	103.707	-34.0682
1550.000000	103.945	-34.8189
1575.000000	104.184	-35.5442
1600.000000	104.393	-36.3368
1625.000000	104.529	-37.2500
1650.000000	104.580	-38.2391
1675.000000	104.577	-39.2536
1700.000000	104.570	-40.2797
1725.000000	104.596	-41.3237
1750.000000	104.671	-42.3661
1775.000000	104.796	-43.3684
1800.000000	104.962	-44.3386
1825.000000	105.154	-45.3494
1850.000000	105.354	-46.4442
1875.000000	105.553	-47.6105
1900.000000	105.747	-48.8154
1925.000000	105.936	-50.0266
1950.000000	106.125	-51.2354
1975.000000	106.318	-52.4823
2000.000000	106.510	-53.8193
2030.000000	106.729	-55.5515
2060.000000	106.930	-57.3843
2090.000000	107.112	-59.2869
2120.000000	107.273	-61.2372
2140.000000	107.370	-62.5410
2180.000000	107.550	-65.1086
2200.000000	107.639	-66.3908
2240.000000	107.813	-69.0275
2270.000000	107.929	-71.0677
2300.000000	108.030	-73.1183
2330.000000	108.119	-75.1426
2360.000000	108.203	-77.1555
2400.000000	108.307	-79.8970
2430.000000	108.371	-82.0089
2470.000000	108.433	-84.8609
2500.000000	108.457	-86.9934
2540.000000	108.460	-89.7530
2580.000000	108.441	-92.3619
2620.000000	108.412	-94.8605
2650.000000	108.381	-96.6826
2690.000000	108.327	-99.0120
2720.000000	108.279	-100.6564
2760.000000	108.214	-102.7328
2800.000000	108.151	-104.7392
2850.000000	108.067	-107.1926
2900.000000	107.969	-109.5598
2950.000000	107.852	-111.7476
3000.000000	107.730	-113.7330
3040.000000	107.635	-115.2134
3070.000000	107.566	-116.2584
3110.000000	107.481	-117.5444
3150.000000	107.412	-118.7217
3200.000000	107.352	-120.1163
3250.000000	107.311	-121.4924
3300.000000	107.276	-122.8535
3350.000000	107.242	-124.1440
3400.000000	107.210	-125.3531
3450.000000	107.177	-126.4985
3500.000000	107.141	-127.5530
3550.000000	107.114	-128.5140
3600.000000	107.107	-129.4431
3650.000000	107.119	-130.4042
3700.000000	107.147	-131.4096
3750.000000	107.192	-132.4330
3820.000000	107.290	-133.9043
3870.000000	107.382	-134.9874
3950.000000	107.566	-136.7512
4000.000000	107.700	-137.9288
4060.000000	107.865	-139.5034
4120.000000	108.015	-141.2661
4180.000000	108.141	-143.1963
4250.000000	108.249	-145.6389
4310.000000	108.310	-147.8422
4370.000000	108.356	-150.1353
4440.000000	108.397	-152.9933
4500.000000	108.415	-155.6337
4550.000000	108.412	-157.9530
4620.000000	108.372	-161.3361
4680.000000	108.298	-164.2808
4750.000000	108.172	-167.6581
4820.000000	108.013	-170.9386
4870.000000	107.882	-173.2250
4940.000000	107.671	-176.3289
5000.000000	107.461	-178.8746
5080.000000	107.128	177.9885
5150.000000	106.782	175.6277
5220.000000	106.383	173.7842
5300.000000	105.879	172.5650
5380.000000	105.384	172.4605
5450.000000	105.042	172.9801
5520.000000	104.814	173.4242
5600.000000	104.616	173.3259
5700.000000	104.325	172.6473
5800.000000	103.964	172.1484
5900.000000	103.590	172.1627
6000.000000	103.246	172.7143
6080.000000	103.013	173.4666
6150.000000	102.846	174.2808
6220.000000	102.714	175.1901
6300.000000	102.603	176.3218
6400.000000	102.520	177.8723
6500.000000	102.505	179.5361
6600.000000	102.562	-178.7755
6700.000000	102.689	-177.1372
6800.000000	102.885	-175.5760
6900.000000	103.154	-174.1404
7000.000000	103.497	-172.9274
7100.000000	103.910	-172.0326
7200.000000	104.392	-171.5278
7300.000000	104.953	-171.5334
7400.000000	105.590	-172.2745
7500.000000	106.275	-174.0465
7620.000000	107.083	-177.9514
7750.000000	107.800	175.2150
7880.000000	108.166	165.8202
8000.000000	108.066	156.0079
8120.000000	107.526	146.8135
8250.000000	106.531	139.1754
8380.000000	105.268	134.6985
8500.000000	104.024	133.2346
8620.000000	102.842	133.7543
8750.000000	101.730	135.8145
8850.000000	101.023	138.0768
9000.000000	100.207	142.0883
9120.000000	99.746	145.5027
9250.000000	99.395	149.1793
9380.000000	99.161	152.7328
9500.000000	99.028	155.8400
9620.000000	98.954	158.7443
9750.000000	98.921	161.6682
9880.000000	98.924	164.3743
10000.000000	98.947	166.6986
10150.000000	98.988	169.4775
10300.000000	99.042	172.2624
10440.000000	99.118	174.9416
10600.000000	99.251	178.1511
10750.000000	99.439	-178.7115
10900.000000	99.712	-175.5342
11060.000000	100.135	-172.2150
11200.000000	100.642	-169.5258
11380.000000	101.493	-166.6968
11500.000000	102.179	-165.4637
11720.000000	103.600	-165.4997
11800.000000	104.126	-166.5289
12060.000000	105.574	-174.6102
12200.000000	106.016	178.2268
12410.000000	106.047	165.9248
12500.000000	105.819	160.9570
12650.000000	105.157	154.1321
12800.000000	104.228	149.7068
13150.000000	101.662	148.3480
13200.000000	101.304	148.9536
13400.000000	99.983	152.6907
13600.000000	98.880	157.9151
13800.000000	98.012	164.0332
14000.000000	97.428	170.6541
14300.000000	97.282	-179.2752
14500.000000	97.744	-173.3198
14750.000000	98.785	-168.4244
15000.000000	99.889	-168.0981
15250.000000	100.534	-172.1765
15500.000000	100.408	-176.7266
15750.000000	99.856	-177.9545
16000.000000	99.449	179.9927
16250.000000	98.831	174.5723
16500.000000	97.720	170.0875
16750.000000	96.373	169.2568
17000.000000	95.123	171.4831
17250.000000	94.146	175.2192
17500.000000	93.474	179.2040
17750.000000	93.038	-177.3939
18000.000000	92.721	-175.0691
18250.000000	92.401	-173.9785
18500.000000	91.953	-173.8533
18750.000000	91.279	-173.9872
19000.000000	90.340	-173.4519
19250.000000	89.158	-171.4661
19500.000000	87.802	-167.6639
19750.000000	86.368	-162.1200
20000.000000	84.955	-155.2251
