* Measurement data measured by REW V5.20.11
* Source: Mic in at front panel (Pink) (Realtek(R) Audio), MICROPHONE (Master Volume), L, volume: 0.250
* Format: 256k Log Swept Sine, 1 sweep at -12.0 dBFS with no timing reference
* Dated: Sep 1, 2022 4:43:03 PM
* REW Settings:
*  C-weighting compensation: Off
*  Target level: 75.0 dB
* Note: CCA PLA R
* Measurement: KZ EDX Ultra Sep 1
* Smoothing: 1/12 octave
* Frequency Step: 1/48 octave
* Start Frequency: 20.000 Hz
*
* Freq(Hz)	SPL(dB)	Phase(degrees)
20.000000	105.261	0.4811
20.299999	105.241	-0.1465
20.600000	105.220	-0.7541
20.900000	105.199	-1.3401
21.200001	105.178	-1.9080
21.400000	105.164	-2.2800
21.799999	105.137	-3.0131
22.000000	105.123	-3.3757
22.400000	105.095	-4.0939
22.700001	105.073	-4.6237
23.000000	105.049	-5.1437
23.299999	105.025	-5.6534
23.600000	105.001	-6.1530
24.000000	104.967	-6.8031
24.299999	104.942	-7.2793
24.700001	104.908	-7.9005
25.000000	104.884	-8.3588
25.400000	104.851	-8.9654
25.799999	104.819	-9.5737
26.200001	104.786	-10.1857
26.500000	104.759	-10.6426
26.900000	104.720	-11.2399
27.200001	104.689	-11.6714
27.600000	104.646	-12.2181
28.000000	104.603	-12.7330
28.500000	104.553	-13.3428
29.000000	104.504	-13.9309
29.500000	104.458	-14.5053
30.000000	104.412	-15.0662
30.400000	104.376	-15.5061
30.700001	104.349	-15.8329
31.100000	104.313	-16.2672
31.500000	104.277	-16.6990
32.000000	104.229	-17.2275
32.500000	104.181	-17.7327
33.000000	104.134	-18.2168
33.500000	104.090	-18.6993
34.000000	104.048	-19.2006
34.500000	104.002	-19.7183
35.000000	103.952	-20.2288
35.500000	103.900	-20.7100
36.000000	103.850	-21.1652
36.500000	103.802	-21.6166
37.000000	103.755	-22.0810
37.500000	103.706	-22.5529
38.200001	103.632	-23.1919
38.700001	103.578	-23.6204
39.500000	103.493	-24.2733
40.000000	103.439	-24.6688
40.599998	103.374	-25.1255
41.200001	103.309	-25.5569
41.799999	103.246	-25.9677
42.500000	103.175	-26.4390
43.099998	103.115	-26.8495
43.700001	103.053	-27.2651
44.400002	102.978	-27.7371
45.000000	102.913	-28.1156
45.500000	102.859	-28.4147
46.200001	102.786	-28.8234
46.799999	102.724	-29.1729
47.500000	102.651	-29.5730
48.200001	102.578	-29.9561
48.700001	102.526	-30.2201
49.400002	102.453	-30.5797
50.000000	102.391	-30.8764
50.799999	102.308	-31.2520
51.500000	102.236	-31.5666
52.200001	102.164	-31.8715
53.000000	102.082	-32.1989
53.799999	102.000	-32.4990
54.500000	101.932	-32.7495
55.200001	101.866	-32.9962
56.000000	101.793	-33.2726
57.000000	101.706	-33.6129
58.000000	101.624	-33.9644
59.000000	101.544	-34.3359
60.000000	101.463	-34.7157
60.799999	101.395	-35.0093
61.500000	101.333	-35.2525
62.200001	101.270	-35.4780
63.000000	101.196	-35.7025
64.000000	101.104	-35.9284
65.000000	101.019	-36.1347
66.000000	100.936	-36.3591
67.000000	100.853	-36.5936
68.000000	100.769	-36.8207
69.000000	100.688	-37.0308
70.000000	100.610	-37.2197
71.000000	100.537	-37.3900
72.000000	100.470	-37.5538
73.000000	100.407	-37.7245
74.000000	100.345	-37.9105
75.000000	100.281	-38.1154
76.199997	100.198	-38.3701
77.500000	100.104	-38.6368
78.800003	100.012	-38.9171
80.000000	99.928	-39.2081
81.199997	99.843	-39.5256
82.500000	99.750	-39.8779
83.800003	99.651	-40.2077
85.000000	99.556	-40.4695
86.199997	99.456	-40.6825
87.500000	99.346	-40.8610
88.500000	99.263	-40.9742
90.000000	99.142	-41.1367
91.199997	99.049	-41.2723
92.500000	98.950	-41.4186
93.800003	98.852	-41.5470
95.000000	98.762	-41.6364
96.199997	98.673	-41.7021
97.500000	98.576	-41.7627
98.800003	98.479	-41.8135
100.000000	98.391	-41.8402
101.500000	98.286	-41.8389
103.000000	98.191	-41.8123
104.400002	98.107	-41.7822
106.000000	98.015	-41.7663
107.500000	97.932	-41.7908
109.000000	97.854	-41.8473
110.599998	97.776	-41.9042
112.000000	97.705	-41.9261
113.800003	97.583	-41.9318
115.000000	97.465	-41.9468
117.199997	97.160	-41.9733
118.000000	97.035	-41.9277
120.599998	96.785	-41.5272
122.000000	96.824	-41.5605
124.099998	97.001	-42.1347
125.000000	97.073	-42.4250
126.500000	97.132	-42.7985
128.000000	97.082	-42.8677
131.500000	96.723	-41.6082
132.000000	96.676	-41.4111
134.000000	96.531	-40.8855
136.000000	96.441	-40.7096
138.000000	96.377	-40.7260
140.000000	96.309	-40.8134
143.000000	96.184	-41.0010
145.000000	96.084	-41.1389
147.500000	95.938	-41.2419
150.000000	95.781	-41.1698
152.500000	95.650	-40.9222
155.000000	95.552	-40.6291
157.500000	95.466	-40.3867
160.000000	95.376	-40.2333
162.500000	95.279	-40.1361
165.000000	95.176	-40.0383
167.500000	95.072	-39.9090
170.000000	94.967	-39.7441
172.500000	94.862	-39.5378
175.000000	94.760	-39.2972
177.500000	94.663	-39.0397
180.000000	94.572	-38.7741
182.500000	94.486	-38.5060
185.000000	94.403	-38.2391
187.500000	94.320	-37.9650
190.000000	94.233	-37.6640
192.500000	94.145	-37.3394
195.000000	94.063	-37.0340
197.500000	93.989	-36.7844
200.000000	93.922	-36.5668
203.000000	93.841	-36.2828
206.000000	93.754	-35.9736
209.000000	93.664	-35.6755
212.000000	93.579	-35.3879
214.000000	93.528	-35.1971
218.000000	93.434	-34.7748
220.000000	93.388	-34.5275
224.000000	93.300	-34.0121
227.000000	93.238	-33.6823
230.000000	93.181	-33.4128
233.000000	93.128	-33.1564
236.000000	93.076	-32.8964
240.000000	93.000	-32.5723
243.000000	92.940	-32.3469
247.000000	92.855	-32.0354
250.000000	92.788	-31.7714
254.000000	92.700	-31.3618
258.000000	92.621	-30.9249
262.000000	92.550	-30.5371
265.000000	92.496	-30.2838
269.000000	92.418	-29.9496
272.000000	92.358	-29.6753
276.000000	92.280	-29.2713
280.000000	92.208	-28.8417
285.000000	92.129	-28.3131
290.000000	92.061	-27.8597
295.000000	91.989	-27.4922
300.000000	91.905	-27.1259
304.000000	91.834	-26.7959
307.000000	91.782	-26.5311
311.000000	91.715	-26.1696
315.000000	91.648	-25.8053
320.000000	91.563	-25.3324
325.000000	91.481	-24.8214
330.000000	91.405	-24.2882
335.000000	91.336	-23.7621
340.000000	91.270	-23.2566
345.000000	91.204	-22.7632
350.000000	91.138	-22.2663
355.000000	91.074	-21.7620
360.000000	91.012	-21.2541
365.000000	90.952	-20.7445
370.000000	90.894	-20.2324
375.000000	90.837	-19.7177
382.000000	90.762	-18.9945
387.000000	90.711	-18.4777
395.000000	90.632	-17.6506
400.000000	90.586	-17.1350
406.000000	90.533	-16.5242
412.000000	90.481	-15.9252
418.000000	90.429	-15.3226
425.000000	90.370	-14.5898
431.000000	90.326	-13.9434
437.000000	90.289	-13.3060
444.000000	90.253	-12.5915
450.000000	90.227	-12.0201
455.000000	90.206	-11.5893
462.000000	90.170	-11.0405
468.000000	90.131	-10.5666
475.000000	90.082	-9.9706
482.000000	90.035	-9.3477
487.000000	90.002	-8.9006
494.000000	89.955	-8.2569
500.000000	89.917	-7.6760
508.000000	89.873	-6.8920
515.000000	89.840	-6.2272
522.000000	89.805	-5.5725
530.000000	89.766	-4.8066
538.000000	89.732	-4.0203
545.000000	89.706	-3.3319
552.000000	89.683	-2.6476
560.000000	89.661	-1.8801
570.000000	89.634	-0.9508
580.000000	89.607	-0.0287
590.000000	89.582	0.9055
600.000000	89.559	1.8625
608.000000	89.545	2.6323
615.000000	89.535	3.2988
622.000000	89.524	3.9691
630.000000	89.514	4.7595
640.000000	89.510	5.7769
650.000000	89.517	6.7971
660.000000	89.537	7.7915
670.000000	89.566	8.7009
680.000000	89.592	9.5208
690.000000	89.611	10.3114
700.000000	89.626	11.1199
710.000000	89.642	11.9552
720.000000	89.661	12.7965
730.000000	89.684	13.6329
740.000000	89.709	14.4680
750.000000	89.736	15.3051
762.000000	89.773	16.3125
775.000000	89.819	17.4033
788.000000	89.871	18.4896
800.000000	89.925	19.5015
812.000000	89.991	20.5201
825.000000	90.079	21.5705
838.000000	90.174	22.5024
850.000000	90.259	23.2806
862.000000	90.339	24.0340
875.000000	90.425	24.8499
885.000000	90.495	25.4746
900.000000	90.607	26.3782
912.000000	90.702	27.0648
925.000000	90.810	27.7592
938.000000	90.923	28.3733
950.000000	91.026	28.8513
962.000000	91.124	29.2509
975.000000	91.220	29.6187
988.000000	91.305	29.9461
1000.000000	91.373	30.2419
1015.000000	91.447	30.6494
1030.000000	91.518	31.1039
1044.000000	91.587	31.5262
1060.000000	91.658	31.9700
1075.000000	91.712	32.4027
1090.000000	91.757	32.9218
1106.000000	91.806	33.5842
1120.000000	91.856	34.2328
1138.000000	91.935	35.1186
1150.000000	91.997	35.7202
1172.000000	92.128	36.8153
1180.000000	92.182	37.2069
1206.000000	92.380	38.3815
1220.000000	92.494	38.9003
1241.000000	92.658	39.5490
1250.000000	92.724	39.8037
1265.000000	92.831	40.2209
1280.000000	92.934	40.6398
1315.000000	93.173	41.6372
1320.000000	93.208	41.7780
1340.000000	93.346	42.3288
1360.000000	93.483	42.8748
1380.000000	93.618	43.4475
1400.000000	93.761	44.0691
1430.000000	94.001	44.9983
1450.000000	94.172	45.5290
1475.000000	94.384	46.1184
1500.000000	94.597	46.6941
1525.000000	94.818	47.2938
1550.000000	95.060	47.9131
1575.000000	95.334	48.4792
1600.000000	95.638	48.8330
1625.000000	95.949	48.8762
1650.000000	96.246	48.6486
1675.000000	96.525	48.2242
1700.000000	96.783	47.6463
1725.000000	97.019	46.9294
1750.000000	97.225	46.1090
1775.000000	97.398	45.2543
1800.000000	97.543	44.4240
1825.000000	97.659	43.6578
1850.000000	97.745	43.0460
1875.000000	97.817	42.7002
1900.000000	97.900	42.6596
1925.000000	98.018	42.8604
1950.000000	98.189	43.1574
1975.000000	98.412	43.3649
2000.000000	98.670	43.3374
2030.000000	98.997	42.9370
2060.000000	99.322	42.1795
2090.000000	99.633	41.1219
2120.000000	99.925	39.8091
2140.000000	100.105	38.8242
2180.000000	100.439	36.6656
2200.000000	100.594	35.4854
2240.000000	100.873	32.8766
2270.000000	101.044	30.7244
2300.000000	101.176	28.4700
2330.000000	101.270	26.1781
2360.000000	101.331	23.8705
2400.000000	101.358	20.7649
2430.000000	101.330	18.4565
2470.000000	101.227	15.5312
2500.000000	101.100	13.5569
2540.000000	100.880	11.4001
2580.000000	100.647	9.8821
2620.000000	100.450	8.8240
2650.000000	100.337	8.1418
2690.000000	100.219	7.1964
2720.000000	100.141	6.4154
2760.000000	100.036	5.2751
2800.000000	99.912	4.0691
2850.000000	99.719	2.6254
2900.000000	99.486	1.4346
2950.000000	99.233	0.6398
3000.000000	98.992	0.2177
3040.000000	98.818	0.0577
3070.000000	98.697	0.0226
3110.000000	98.554	0.0870
3150.000000	98.439	0.2286
3200.000000	98.339	0.3573
3250.000000	98.266	0.2895
3300.000000	98.189	0.0268
3350.000000	98.093	-0.2825
3400.000000	97.985	-0.5291
3450.000000	97.875	-0.7087
3500.000000	97.767	-0.8385
3550.000000	97.661	-0.9397
3600.000000	97.554	-1.0371
3650.000000	97.435	-1.1292
3700.000000	97.294	-1.1420
3750.000000	97.131	-0.9240
3820.000000	96.906	-0.0176
3870.000000	96.789	1.0513
3950.000000	96.749	3.0864
4000.000000	96.821	4.2212
4060.000000	96.973	5.1757
4120.000000	97.157	5.6210
4180.000000	97.344	5.6119
4250.000000	97.544	5.1653
4310.000000	97.701	4.5402
4370.000000	97.854	3.7042
4440.000000	98.026	2.3424
4500.000000	98.147	0.7832
4550.000000	98.215	-0.7647
4620.000000	98.242	-3.2006
4680.000000	98.195	-5.3784
4750.000000	98.073	-7.8503
4820.000000	97.897	-10.2283
4870.000000	97.739	-11.9032
4940.000000	97.464	-14.2082
5000.000000	97.166	-16.0652
5080.000000	96.668	-18.0811
5150.000000	96.157	-19.1212
5220.000000	95.625	-19.4088
5300.000000	95.047	-19.0315
5380.000000	94.525	-18.2394
5450.000000	94.098	-17.3431
5520.000000	93.682	-16.1884
5600.000000	93.231	-14.4530
5700.000000	92.745	-11.8127
5800.000000	92.356	-9.0452
5900.000000	92.012	-6.2577
6000.000000	91.693	-3.1985
6080.000000	91.475	-0.4771
6150.000000	91.327	2.0494
6220.000000	91.221	4.6383
6300.000000	91.147	7.6195
6400.000000	91.119	11.3520
6500.000000	91.159	15.0696
6600.000000	91.265	18.7563
6700.000000	91.438	22.4297
6800.000000	91.695	26.0950
6900.000000	92.049	29.6567
7000.000000	92.505	32.9688
7100.000000	93.058	35.9550
7200.000000	93.723	38.5893
7300.000000	94.523	40.7230
7400.000000	95.456	41.9995
7500.000000	96.473	41.9389
7620.000000	97.682	39.4545
7750.000000	98.766	33.3285
7880.000000	99.396	24.2028
8000.000000	99.475	14.8443
8120.000000	99.105	6.5707
8250.000000	98.350	0.2328
8380.000000	97.429	-3.1010
8500.000000	96.593	-3.9656
8620.000000	95.884	-3.4143
8750.000000	95.306	-1.9724
8850.000000	94.993	-0.6058
9000.000000	94.707	1.4736
9120.000000	94.598	2.9429
9250.000000	94.556	4.3274
9380.000000	94.594	5.6289
9500.000000	94.733	6.7047
9620.000000	94.992	7.3445
9750.000000	95.379	7.0251
9880.000000	95.790	5.1517
10000.000000	96.084	1.8865
10150.000000	96.203	-3.7924
10300.000000	95.970	-10.0359
10440.000000	95.444	-15.1324
10600.000000	94.572	-19.0944
10750.000000	93.622	-20.8056
10900.000000	92.656	-20.9086
11060.000000	91.687	-19.7267
11200.000000	90.919	-17.9436
11380.000000	90.040	-14.9572
11500.000000	89.511	-12.5986
11720.000000	88.635	-7.4085
11800.000000	88.350	-5.1836
12060.000000	87.644	3.3000
12200.000000	87.466	8.3817
12410.000000	87.511	15.9738
12500.000000	87.636	19.0377
12650.000000	87.958	23.7322
12800.000000	88.394	27.8254
13150.000000	89.704	34.8171
13200.000000	89.915	35.5181
13400.000000	90.799	37.5631
13600.000000	91.732	38.3752
13800.000000	92.691	37.8798
14000.000000	93.645	35.9070
14300.000000	94.930	29.6934
14500.000000	95.569	23.3251
14750.000000	95.985	13.5363
15000.000000	95.903	3.3943
15250.000000	95.395	-4.9892
15500.000000	94.712	-10.5627
15750.000000	94.209	-14.2157
16000.000000	94.102	-18.5049
16250.000000	94.196	-26.2244
16500.000000	93.985	-37.8649
16750.000000	93.075	-50.1295
17000.000000	91.417	-58.5463
17250.000000	89.245	-61.2748
17500.000000	86.898	-59.3168
17750.000000	84.699	-54.6024
18000.000000	82.853	-48.6949
18250.000000	81.399	-42.4249
18500.000000	80.271	-36.0558
18750.000000	79.396	-29.6361
19000.000000	78.730	-23.2482
19250.000000	78.236	-17.0166
19500.000000	77.875	-10.9948
19750.000000	77.611	-5.1399
20000.000000	77.428	0.5936
