* Measurement data measured by REW V5.20.13
* Source: EXCL: Mic in at front panel (Pink) (Realtek(R) Audio), MICROPHONE (Master Volume), L, volume: 0.250
* Format: 256k Log Swept Sine, 1 sweep at -12.0 dBFS with no timing reference
* Dated: Nov 6, 2022 1:21:20 PM
* REW Settings:
*  C-weighting compensation: Off
*  Target level: 75.0 dB
* Note: CCZ Warrior L
* Measurement: CCZ Warrior L
* Smoothing: 1/12 octave
* Frequency Step: 1/48 octave
* Start Frequency: 20.000 Hz
*
* Freq(Hz)	SPL(dB)	Phase(degrees)
20.000000	98.257	-119.3216
20.299999	98.340	-120.0121
20.600000	98.421	-120.6924
20.900000	98.501	-121.3686
21.200001	98.579	-122.0445
21.400000	98.629	-122.4942
21.799999	98.725	-123.3861
22.000000	98.771	-123.8249
22.400000	98.859	-124.6819
22.700001	98.922	-125.3050
23.000000	98.985	-125.9135
23.299999	99.046	-126.5113
23.600000	99.105	-127.1009
24.000000	99.182	-127.8756
24.299999	99.238	-128.4458
24.700001	99.309	-129.1873
25.000000	99.361	-129.7274
25.400000	99.430	-130.4282
25.799999	99.498	-131.1138
26.200001	99.565	-131.7923
26.500000	99.615	-132.2994
26.900000	99.679	-132.9726
27.200001	99.725	-133.4729
27.600000	99.785	-134.1297
28.000000	99.842	-134.7722
28.500000	99.913	-135.5578
29.000000	99.981	-136.3335
29.500000	100.048	-137.1077
30.000000	100.110	-137.8795
30.400000	100.157	-138.4886
30.700001	100.190	-138.9368
31.100000	100.233	-139.5202
31.500000	100.275	-140.0890
32.000000	100.327	-140.7865
32.500000	100.378	-141.4786
33.000000	100.427	-142.1698
33.500000	100.474	-142.8566
34.000000	100.517	-143.5323
34.500000	100.558	-144.1922
35.000000	100.597	-144.8377
35.500000	100.635	-145.4740
36.000000	100.672	-146.1057
36.500000	100.706	-146.7312
37.000000	100.737	-147.3433
37.500000	100.765	-147.9351
38.200001	100.803	-148.7282
38.700001	100.830	-149.2777
39.500000	100.873	-150.1436
40.000000	100.898	-150.6760
40.599998	100.926	-151.3013
41.200001	100.953	-151.9115
41.799999	100.980	-152.5112
42.500000	101.010	-153.2017
43.099998	101.035	-153.7855
43.700001	101.058	-154.3609
44.400002	101.083	-155.0215
45.000000	101.102	-155.5766
45.500000	101.117	-156.0294
46.200001	101.136	-156.6472
46.799999	101.152	-157.1627
47.500000	101.168	-157.7488
48.200001	101.184	-158.3205
48.700001	101.195	-158.7229
49.400002	101.209	-159.2806
50.000000	101.219	-159.7505
50.799999	101.231	-160.3602
51.500000	101.241	-160.8785
52.200001	101.251	-161.3833
53.000000	101.261	-161.9383
53.799999	101.274	-162.4712
54.500000	101.288	-162.9326
55.200001	101.303	-163.4003
56.000000	101.320	-163.9422
57.000000	101.340	-164.6217
58.000000	101.358	-165.3024
59.000000	101.372	-165.9810
60.000000	101.382	-166.6395
60.799999	101.388	-167.1458
61.500000	101.393	-167.5773
62.200001	101.398	-168.0014
63.000000	101.403	-168.4778
64.000000	101.407	-169.0595
65.000000	101.411	-169.6288
66.000000	101.414	-170.1930
67.000000	101.416	-170.7549
68.000000	101.418	-171.3119
69.000000	101.420	-171.8661
70.000000	101.422	-172.4221
71.000000	101.422	-172.9785
72.000000	101.419	-173.5196
73.000000	101.413	-174.0234
74.000000	101.407	-174.4892
75.000000	101.404	-174.9382
76.199997	101.400	-175.4768
77.500000	101.397	-176.0707
78.800003	101.393	-176.6830
80.000000	101.389	-177.2694
81.199997	101.384	-177.8744
82.500000	101.373	-178.5392
83.800003	101.356	-179.1947
85.000000	101.335	-179.7746
86.199997	101.308	179.6798
87.500000	101.276	179.1285
88.500000	101.251	178.7288
90.000000	101.215	178.1617
91.199997	101.190	177.7281
92.500000	101.167	177.2677
93.800003	101.145	176.8163
95.000000	101.124	176.4108
96.199997	101.101	176.0139
97.500000	101.073	175.5880
98.800003	101.044	175.1640
100.000000	101.018	174.7777
101.500000	100.988	174.3127
103.000000	100.962	173.8763
104.400002	100.938	173.4899
106.000000	100.909	173.0511
107.500000	100.878	172.6161
109.000000	100.847	172.1455
110.599998	100.816	171.6244
112.000000	100.788	171.1908
113.800003	100.734	170.7127
115.000000	100.679	170.4525
117.199997	100.530	170.1086
118.000000	100.472	170.0316
120.599998	100.364	169.7817
122.000000	100.370	169.4690
124.099998	100.401	168.8736
125.000000	100.410	168.6491
126.500000	100.414	168.3170
128.000000	100.402	167.9828
131.500000	100.374	167.2726
132.000000	100.377	167.2148
134.000000	100.406	167.1031
136.000000	100.431	166.9526
138.000000	100.395	166.4884
140.000000	100.302	165.8353
143.000000	100.181	164.9487
145.000000	100.118	164.6068
147.500000	100.025	164.5082
150.000000	99.942	164.3553
152.500000	99.889	163.9007
155.000000	99.850	163.4710
157.500000	99.806	163.2229
160.000000	99.752	162.9564
162.500000	99.705	162.5380
165.000000	99.669	162.0157
167.500000	99.626	161.5203
170.000000	99.569	161.1068
172.500000	99.509	160.7498
175.000000	99.451	160.4243
177.500000	99.396	160.1156
180.000000	99.340	159.8130
182.500000	99.287	159.5160
185.000000	99.234	159.2252
187.500000	99.181	158.9403
190.000000	99.125	158.6608
192.500000	99.067	158.3875
195.000000	99.009	158.1266
197.500000	98.949	157.8871
200.000000	98.889	157.6726
203.000000	98.819	157.4399
206.000000	98.753	157.2087
209.000000	98.690	156.9533
212.000000	98.625	156.6779
214.000000	98.579	156.5016
218.000000	98.483	156.2308
220.000000	98.435	156.1409
224.000000	98.346	155.9846
227.000000	98.284	155.8506
230.000000	98.224	155.7057
233.000000	98.164	155.5571
236.000000	98.104	155.4004
240.000000	98.023	155.1762
243.000000	97.959	155.0113
247.000000	97.868	154.8250
250.000000	97.799	154.7271
254.000000	97.711	154.6607
258.000000	97.634	154.6267
262.000000	97.566	154.5543
265.000000	97.514	154.4702
269.000000	97.440	154.3600
272.000000	97.382	154.3013
276.000000	97.307	154.2574
280.000000	97.237	154.2372
285.000000	97.160	154.2086
290.000000	97.091	154.1138
295.000000	97.015	153.9401
300.000000	96.926	153.7717
304.000000	96.850	153.6799
307.000000	96.794	153.6328
311.000000	96.720	153.5841
315.000000	96.646	153.5437
320.000000	96.551	153.5205
325.000000	96.457	153.5472
330.000000	96.369	153.6078
335.000000	96.287	153.6723
340.000000	96.207	153.7250
345.000000	96.127	153.7727
350.000000	96.045	153.8314
355.000000	95.964	153.9059
360.000000	95.885	153.9923
365.000000	95.808	154.0872
370.000000	95.732	154.1916
375.000000	95.657	154.3068
382.000000	95.553	154.4843
387.000000	95.480	154.6229
395.000000	95.364	154.8713
400.000000	95.293	155.0439
406.000000	95.211	155.2628
412.000000	95.130	155.4931
418.000000	95.050	155.7496
425.000000	94.961	156.1000
431.000000	94.895	156.4248
437.000000	94.839	156.7326
444.000000	94.782	157.0408
450.000000	94.738	157.2457
455.000000	94.701	157.3633
462.000000	94.639	157.4715
468.000000	94.574	157.5738
475.000000	94.492	157.7504
482.000000	94.411	157.9713
487.000000	94.353	158.1414
494.000000	94.269	158.4109
500.000000	94.200	158.6833
508.000000	94.114	159.0714
515.000000	94.044	159.4023
522.000000	93.972	159.7338
530.000000	93.891	160.1432
538.000000	93.814	160.5854
545.000000	93.750	160.9819
552.000000	93.690	161.3828
560.000000	93.626	161.8365
570.000000	93.546	162.3887
580.000000	93.467	162.9499
590.000000	93.388	163.5365
600.000000	93.312	164.1589
608.000000	93.256	164.6716
615.000000	93.209	165.1204
622.000000	93.161	165.5793
630.000000	93.109	166.1358
640.000000	93.052	166.8713
650.000000	93.006	167.6212
660.000000	92.972	168.3574
670.000000	92.949	169.0222
680.000000	92.923	169.6111
690.000000	92.890	170.1838
700.000000	92.853	170.7867
710.000000	92.818	171.4285
720.000000	92.786	172.0883
730.000000	92.759	172.7548
740.000000	92.734	173.4315
750.000000	92.712	174.1215
762.000000	92.691	174.9662
775.000000	92.676	175.8959
788.000000	92.669	176.8348
800.000000	92.669	177.7198
812.000000	92.683	178.6184
825.000000	92.714	179.5453
838.000000	92.753	-179.6388
850.000000	92.786	-178.9579
862.000000	92.814	-178.2896
875.000000	92.844	-177.5488
885.000000	92.870	-176.9678
900.000000	92.916	-176.1024
912.000000	92.958	-175.4200
925.000000	93.012	-174.7016
938.000000	93.073	-174.0352
950.000000	93.131	-173.4889
962.000000	93.187	-173.0059
975.000000	93.237	-172.5221
988.000000	93.276	-172.0223
1000.000000	93.304	-171.4851
1015.000000	93.348	-170.6626
1030.000000	93.420	-169.7426
1044.000000	93.518	-168.9402
1060.000000	93.648	-168.2105
1075.000000	93.769	-167.6915
1090.000000	93.885	-167.2686
1106.000000	94.002	-166.8867
1120.000000	94.100	-166.5973
1138.000000	94.220	-166.2685
1150.000000	94.298	-166.0680
1172.000000	94.435	-165.7218
1180.000000	94.485	-165.5999
1206.000000	94.654	-165.2741
1220.000000	94.744	-165.1888
1241.000000	94.861	-165.1504
1250.000000	94.904	-165.1405
1265.000000	94.968	-165.1071
1280.000000	95.027	-165.0412
1315.000000	95.156	-164.7477
1320.000000	95.174	-164.6943
1340.000000	95.249	-164.4631
1360.000000	95.325	-164.1943
1380.000000	95.403	-163.8672
1400.000000	95.493	-163.4728
1430.000000	95.663	-162.8812
1450.000000	95.792	-162.5950
1475.000000	95.954	-162.3536
1500.000000	96.115	-162.1864
1525.000000	96.276	-162.0565
1550.000000	96.442	-161.9420
1575.000000	96.623	-161.8603
1600.000000	96.818	-161.9056
1625.000000	97.014	-162.1321
1650.000000	97.200	-162.4951
1675.000000	97.377	-162.9445
1700.000000	97.546	-163.4668
1725.000000	97.708	-164.0677
1750.000000	97.858	-164.7257
1775.000000	98.000	-165.3992
1800.000000	98.143	-166.0922
1825.000000	98.288	-166.8724
1850.000000	98.425	-167.7767
1875.000000	98.548	-168.7847
1900.000000	98.654	-169.8543
1925.000000	98.743	-170.9430
1950.000000	98.821	-172.0319
1975.000000	98.894	-173.1506
2000.000000	98.957	-174.3385
2030.000000	99.010	-175.8455
2060.000000	99.034	-177.3842
2090.000000	99.030	-178.9104
2120.000000	98.999	179.6066
2140.000000	98.963	178.6696
2180.000000	98.866	176.9805
2200.000000	98.813	176.2133
2240.000000	98.695	174.7631
2270.000000	98.592	173.7502
2300.000000	98.476	172.8429
2330.000000	98.353	172.0734
2360.000000	98.231	171.4192
2400.000000	98.075	170.6333
2430.000000	97.955	170.0819
2470.000000	97.786	169.4169
2500.000000	97.651	168.9940
2540.000000	97.461	168.5893
2580.000000	97.271	168.3943
2620.000000	97.091	168.3429
2650.000000	96.962	168.3685
2690.000000	96.791	168.5097
2720.000000	96.668	168.7169
2760.000000	96.520	169.0989
2800.000000	96.392	169.5305
2850.000000	96.248	170.0848
2900.000000	96.112	170.6702
2950.000000	95.980	171.3712
3000.000000	95.866	172.2037
3040.000000	95.790	172.9220
3070.000000	95.740	173.4917
3110.000000	95.686	174.3094
3150.000000	95.653	175.1737
3200.000000	95.645	176.2315
3250.000000	95.667	177.1760
3300.000000	95.704	177.9724
3350.000000	95.748	178.6458
3400.000000	95.795	179.1966
3450.000000	95.833	179.6407
3500.000000	95.855	-179.9189
3550.000000	95.872	-179.3929
3600.000000	95.898	-178.7817
3650.000000	95.938	-178.1289
3700.000000	95.991	-177.4592
3750.000000	96.062	-176.7731
3820.000000	96.196	-175.8429
3870.000000	96.314	-175.2322
3950.000000	96.553	-174.3719
4000.000000	96.737	-173.9952
4060.000000	96.985	-173.8292
4120.000000	97.246	-174.0230
4180.000000	97.508	-174.5893
4250.000000	97.797	-175.7348
4310.000000	98.019	-177.0971
4370.000000	98.211	-178.8033
4440.000000	98.380	178.7267
4500.000000	98.451	176.2265
4550.000000	98.442	173.9674
4620.000000	98.306	170.7742
4680.000000	98.065	168.3295
4750.000000	97.657	166.2757
4820.000000	97.170	165.4305
4870.000000	96.820	165.6441
4940.000000	96.413	166.9610
5000.000000	96.216	168.6562
5080.000000	96.220	170.7319
5150.000000	96.402	171.4426
5220.000000	96.596	170.6960
5300.000000	96.669	168.4783
5380.000000	96.517	165.8401
5450.000000	96.222	163.9243
5520.000000	95.824	162.7296
5600.000000	95.312	162.3230
5700.000000	94.672	163.0151
5800.000000	94.084	164.6794
5900.000000	93.565	167.0783
6000.000000	93.133	170.0706
6080.000000	92.861	172.7505
6150.000000	92.675	175.2129
6220.000000	92.533	177.7358
6300.000000	92.419	-179.3200
6400.000000	92.344	-175.5309
6500.000000	92.352	-171.6393
6600.000000	92.449	-167.7219
6700.000000	92.636	-163.8453
6800.000000	92.916	-160.0300
6900.000000	93.301	-156.3225
7000.000000	93.803	-152.8310
7100.000000	94.429	-149.6830
7200.000000	95.189	-147.0038
7300.000000	96.090	-144.9874
7400.000000	97.122	-143.9543
7500.000000	98.242	-144.3165
7620.000000	99.599	-147.2250
7750.000000	100.885	-154.1709
7880.000000	101.718	-165.0887
8000.000000	101.910	-177.1845
8120.000000	101.520	171.2640
8250.000000	100.568	161.6719
8380.000000	99.287	155.9669
8500.000000	98.014	153.7818
8620.000000	96.807	153.7712
8750.000000	95.672	155.3525
8850.000000	94.943	157.2869
9000.000000	94.091	160.8768
9120.000000	93.605	164.0223
9250.000000	93.252	167.4581
9380.000000	93.060	170.7647
9500.000000	93.012	173.5532
9620.000000	93.074	175.9437
9750.000000	93.244	177.9423
9880.000000	93.497	179.1517
10000.000000	93.770	179.4002
10150.000000	94.101	178.4030
10300.000000	94.347	175.9721
10440.000000	94.431	172.6354
10600.000000	94.298	168.1736
10750.000000	93.940	164.1219
10900.000000	93.386	160.8670
11060.000000	92.650	158.7206
11200.000000	91.963	157.9771
11380.000000	91.123	158.2086
11500.000000	90.626	158.8435
11720.000000	89.896	160.3761
11800.000000	89.694	160.8853
12060.000000	89.258	161.3938
12200.000000	89.106	160.3940
12410.000000	88.817	156.6801
12500.000000	88.615	154.3375
12650.000000	88.104	149.8701
12800.000000	87.323	145.5064
13150.000000	84.438	141.1036
13200.000000	83.929	141.4640
13400.000000	81.771	145.4540
13600.000000	79.576	152.9794
13800.000000	77.530	163.2238
14000.000000	75.783	175.4533
14300.000000	73.980	-164.0739
14500.000000	73.410	-150.0236
14750.000000	73.379	-132.9204
15000.000000	74.029	-116.8589
15250.000000	75.338	-102.1893
15500.000000	77.343	-89.2510
15750.000000	80.025	-78.6239
16000.000000	83.173	-71.4542
16250.000000	86.394	-69.7684
16500.000000	89.233	-76.3712
16750.000000	91.291	-93.1964
17000.000000	92.338	-118.5388
17250.000000	92.390	-147.6183
17500.000000	91.590	-176.3362
17750.000000	89.997	158.4680
18000.000000	87.628	140.0903
18250.000000	84.591	130.0914
18500.000000	81.076	127.3032
18750.000000	77.294	129.2592
19000.000000	73.453	133.5362
19250.000000	69.743	138.3129
19500.000000	66.289	142.8778
19750.000000	63.071	147.9282
20000.000000	59.951	155.2855
