* Measurement data measured by REW V5.20
* Source: Mic in at front panel (Pink) (Realtek(R) Audio), no input selected, L, volume: 0.250
* Format: 256k Log Swept Sine, 1 sweep at -12.0 dBFS with no timing reference
* Dated: Sep 3, 2021 11:33:24 PM
* REW Settings:
*  C-weighting compensation: Off
*  Target level: 75.0 dB
* Note: CCZ Melody
* Measurement: Sep 3
* Smoothing: 1/12 octave
* Frequency Step: 1/48 octave
* Start Frequency: 20.000 Hz
*
* Freq(Hz)	SPL(dB)	Phase(degrees)
20.000000	101.3	49.6450
20.299999	101.3	48.8601
20.600000	101.3	48.1003
20.900000	101.4	47.3665
21.200001	101.4	46.6565
21.400000	101.5	46.1931
21.799999	101.5	45.2822
22.000000	101.5	44.8305
22.400000	101.6	43.9272
22.700001	101.6	43.2479
23.000000	101.7	42.5695
23.299999	101.7	41.8983
23.600000	101.7	41.2414
24.000000	101.8	40.3974
24.299999	101.8	39.7913
24.700001	101.8	39.0139
25.000000	101.9	38.4452
25.400000	101.9	37.6941
25.799999	101.9	36.9457
26.200001	102.0	36.2070
26.500000	102.0	35.6671
26.900000	102.0	34.9713
27.200001	102.0	34.4644
27.600000	102.1	33.7961
28.000000	102.1	33.1202
28.500000	102.1	32.2577
29.000000	102.2	31.4002
29.500000	102.2	30.5833
30.000000	102.2	29.8194
30.400000	102.2	29.2344
30.700001	102.2	28.8022
31.100000	102.3	28.2281
31.500000	102.3	27.6562
32.000000	102.3	26.9495
32.500000	102.3	26.2546
33.000000	102.3	25.5686
33.500000	102.4	24.8893
34.000000	102.4	24.2198
34.500000	102.4	23.5652
35.000000	102.4	22.9266
35.500000	102.4	22.3019
36.000000	102.4	21.6894
36.500000	102.4	21.0898
37.000000	102.4	20.5044
37.500000	102.4	19.9316
38.200001	102.5	19.1417
38.700001	102.5	18.5786
39.500000	102.5	17.6814
40.000000	102.5	17.1371
40.599998	102.5	16.5128
41.200001	102.5	15.9133
41.799999	102.5	15.3184
42.500000	102.5	14.6164
43.099998	102.5	14.0200
43.700001	102.5	13.4441
44.400002	102.5	12.8009
45.000000	102.5	12.2667
45.500000	102.5	11.8314
46.200001	102.4	11.2392
46.799999	102.4	10.7479
47.500000	102.4	10.1876
48.200001	102.4	9.6379
48.700001	102.4	9.2554
49.400002	102.4	8.7406
50.000000	102.4	8.3162
50.799999	102.4	7.7512
51.500000	102.4	7.2364
52.200001	102.4	6.7032
53.000000	102.4	6.0946
53.799999	102.4	5.5089
54.500000	102.4	5.0198
55.200001	102.4	4.5470
56.000000	102.4	4.0129
57.000000	102.3	3.3361
58.000000	102.3	2.6549
59.000000	102.3	1.9847
60.000000	102.3	1.3270
60.799999	102.3	0.8141
61.500000	102.3	0.3804
62.200001	102.3	-0.0392
63.000000	102.2	-0.5074
64.000000	102.2	-1.0845
65.000000	102.2	-1.6494
66.000000	102.2	-2.1819
67.000000	102.1	-2.6755
68.000000	102.1	-3.1632
69.000000	102.1	-3.6658
70.000000	102.1	-4.1818
71.000000	102.0	-4.7183
72.000000	102.0	-5.2584
73.000000	102.0	-5.7646
74.000000	101.9	-6.2281
75.000000	101.9	-6.6668
76.199997	101.9	-7.1869
77.500000	101.8	-7.7502
78.800003	101.8	-8.3059
80.000000	101.8	-8.8229
81.199997	101.8	-9.3586
82.500000	101.7	-9.9615
83.800003	101.7	-10.5765
85.000000	101.6	-11.1346
86.199997	101.6	-11.6574
87.500000	101.5	-12.1718
88.500000	101.5	-12.5380
90.000000	101.4	-13.0596
91.199997	101.4	-13.4586
92.500000	101.3	-13.8693
93.800003	101.3	-14.2614
95.000000	101.2	-14.6156
96.199997	101.2	-14.9683
97.500000	101.2	-15.3530
98.800003	101.1	-15.7372
100.000000	101.1	-16.0809
101.500000	101.0	-16.4846
103.000000	101.0	-16.8674
104.400002	100.9	-17.2219
106.000000	100.9	-17.6355
107.500000	100.8	-18.0358
109.000000	100.8	-18.4485
110.599998	100.7	-18.8969
112.000000	100.7	-19.2858
113.800003	100.6	-19.7643
115.000000	100.5	-20.0615
117.199997	100.4	-20.5338
118.000000	100.4	-20.6730
120.599998	100.2	-21.0345
122.000000	100.2	-21.2495
124.099998	100.1	-21.6317
125.000000	100.1	-21.7961
126.500000	100.1	-22.0529
128.000000	100.0	-22.2898
131.500000	99.9	-22.8086
132.000000	99.9	-22.8795
134.000000	99.8	-23.1559
136.000000	99.7	-23.4338
138.000000	99.6	-23.7239
140.000000	99.6	-24.0076
143.000000	99.4	-24.3398
145.000000	99.4	-24.4731
147.500000	99.3	-24.5900
150.000000	99.2	-24.6992
152.500000	99.1	-24.7646
155.000000	99.0	-24.7339
157.500000	99.0	-24.6476
160.000000	98.9	-24.6128
162.500000	98.9	-24.6788
165.000000	98.8	-24.8334
167.500000	98.8	-25.0603
170.000000	98.7	-25.3251
172.500000	98.7	-25.5972
175.000000	98.6	-25.8744
177.500000	98.6	-26.1612
180.000000	98.5	-26.4559
182.500000	98.4	-26.7496
185.000000	98.4	-27.0306
187.500000	98.3	-27.2905
190.000000	98.2	-27.5267
192.500000	98.2	-27.7410
195.000000	98.1	-27.9357
197.500000	98.0	-28.1068
200.000000	97.9	-28.2396
203.000000	97.9	-28.3305
206.000000	97.8	-28.3800
209.000000	97.7	-28.4531
212.000000	97.6	-28.5600
214.000000	97.6	-28.6338
218.000000	97.5	-28.7443
220.000000	97.4	-28.7773
224.000000	97.3	-28.8313
227.000000	97.2	-28.8860
230.000000	97.2	-28.9534
233.000000	97.1	-29.0237
236.000000	97.0	-29.0933
240.000000	96.9	-29.1859
243.000000	96.8	-29.2484
247.000000	96.7	-29.2979
250.000000	96.6	-29.2921
254.000000	96.5	-29.2197
258.000000	96.4	-29.1152
262.000000	96.4	-29.0500
265.000000	96.3	-29.0321
269.000000	96.2	-29.0040
272.000000	96.1	-28.9553
276.000000	96.1	-28.8521
280.000000	96.0	-28.7230
285.000000	95.9	-28.5650
290.000000	95.8	-28.4770
295.000000	95.7	-28.4719
300.000000	95.6	-28.4628
304.000000	95.5	-28.4123
307.000000	95.5	-28.3527
311.000000	95.4	-28.2593
315.000000	95.3	-28.1573
320.000000	95.2	-28.0033
325.000000	95.1	-27.8026
330.000000	95.0	-27.5719
335.000000	94.9	-27.3384
340.000000	94.8	-27.1153
345.000000	94.7	-26.8958
350.000000	94.6	-26.6649
355.000000	94.5	-26.4182
360.000000	94.4	-26.1617
365.000000	94.4	-25.9009
370.000000	94.3	-25.6348
375.000000	94.2	-25.3608
382.000000	94.1	-24.9639
387.000000	94.0	-24.6714
395.000000	93.9	-24.1881
400.000000	93.8	-23.8787
406.000000	93.7	-23.5078
412.000000	93.6	-23.1393
418.000000	93.5	-22.7572
425.000000	93.4	-22.2717
431.000000	93.3	-21.8296
437.000000	93.3	-21.3898
444.000000	93.2	-20.8969
450.000000	93.1	-20.5061
455.000000	93.1	-20.2193
462.000000	93.0	-19.8647
468.000000	92.9	-19.5517
475.000000	92.8	-19.1362
482.000000	92.7	-18.6853
487.000000	92.7	-18.3555
494.000000	92.6	-17.8685
500.000000	92.5	-17.4149
508.000000	92.4	-16.7911
515.000000	92.3	-16.2587
522.000000	92.3	-15.7301
530.000000	92.2	-15.1007
538.000000	92.1	-14.4417
545.000000	92.0	-13.8558
552.000000	92.0	-13.2668
560.000000	91.9	-12.6006
570.000000	91.8	-11.7863
580.000000	91.7	-10.9644
590.000000	91.6	-10.1172
600.000000	91.5	-9.2345
608.000000	91.5	-8.5150
615.000000	91.4	-7.8861
622.000000	91.4	-7.2473
630.000000	91.3	-6.4857
640.000000	91.3	-5.4934
650.000000	91.2	-4.4852
660.000000	91.2	-3.4888
670.000000	91.1	-2.5629
680.000000	91.1	-1.7125
690.000000	91.1	-0.8781
700.000000	91.0	-0.0134
710.000000	91.0	0.8914
720.000000	90.9	1.8178
730.000000	90.9	2.7549
740.000000	90.9	3.7054
750.000000	90.8	4.6722
762.000000	90.8	5.8536
775.000000	90.8	7.1532
788.000000	90.7	8.4683
800.000000	90.7	9.7079
812.000000	90.7	10.9691
825.000000	90.8	12.2985
838.000000	90.8	13.5270
850.000000	90.8	14.5965
862.000000	90.8	15.6603
875.000000	90.9	16.8366
885.000000	90.9	17.7577
900.000000	90.9	19.1400
912.000000	91.0	20.2403
925.000000	91.0	21.4138
938.000000	91.1	22.5358
950.000000	91.2	23.5002
962.000000	91.2	24.3934
975.000000	91.3	25.3036
988.000000	91.4	26.2053
1000.000000	91.4	27.0930
1015.000000	91.5	28.3225
1030.000000	91.6	29.5995
1044.000000	91.7	30.6968
1060.000000	91.9	31.7609
1075.000000	92.0	32.6248
1090.000000	92.1	33.4281
1106.000000	92.3	34.2361
1120.000000	92.4	34.8976
1138.000000	92.5	35.6871
1150.000000	92.6	36.1800
1172.000000	92.8	37.0341
1180.000000	92.9	37.3339
1206.000000	93.1	38.2247
1220.000000	93.2	38.6119
1241.000000	93.4	39.1112
1250.000000	93.4	39.3260
1265.000000	93.5	39.7194
1280.000000	93.6	40.1788
1315.000000	93.8	41.5496
1320.000000	93.8	41.7695
1340.000000	94.0	42.6474
1360.000000	94.2	43.4350
1380.000000	94.4	44.0481
1400.000000	94.6	44.4812
1430.000000	94.9	44.8525
1450.000000	95.1	44.9629
1475.000000	95.3	45.0707
1500.000000	95.5	45.2378
1525.000000	95.7	45.5023
1550.000000	95.8	45.8744
1575.000000	95.9	46.3217
1600.000000	96.0	46.7380
1625.000000	96.2	47.0612
1650.000000	96.3	47.3299
1675.000000	96.4	47.5910
1700.000000	96.6	47.8569
1725.000000	96.7	48.1215
1750.000000	96.8	48.4055
1775.000000	96.9	48.7520
1800.000000	97.0	49.1630
1825.000000	97.2	49.5826
1850.000000	97.3	49.9885
1875.000000	97.4	50.4099
1900.000000	97.6	50.8777
1925.000000	97.8	51.3863
1950.000000	98.1	51.8658
1975.000000	98.4	52.1792
2000.000000	98.7	52.2024
2030.000000	99.0	51.8201
2060.000000	99.4	51.0962
2090.000000	99.7	50.1650
2120.000000	100.0	49.1279
2140.000000	100.1	48.4213
2180.000000	100.4	47.0367
2200.000000	100.5	46.3411
2240.000000	100.8	44.8739
2270.000000	101.0	43.7241
2300.000000	101.1	42.5923
2330.000000	101.2	41.5146
2360.000000	101.4	40.4488
2400.000000	101.6	38.8900
2430.000000	101.7	37.5615
2470.000000	101.8	35.6344
2500.000000	101.9	34.1700
2540.000000	101.9	32.3746
2580.000000	101.9	30.8768
2620.000000	102.0	29.6016
2650.000000	102.0	28.6966
2690.000000	102.0	27.4673
2720.000000	102.0	26.4950
2760.000000	102.1	25.0938
2800.000000	102.1	23.5745
2850.000000	102.0	21.6403
2900.000000	101.9	19.8706
2950.000000	101.7	18.4537
3000.000000	101.6	17.4150
3040.000000	101.5	16.7872
3070.000000	101.4	16.4193
3110.000000	101.2	16.0712
3150.000000	101.1	15.8629
3200.000000	101.0	15.7186
3250.000000	100.9	15.6340
3300.000000	100.8	15.6044
3350.000000	100.7	15.6882
3400.000000	100.6	15.9019
3450.000000	100.6	16.2295
3500.000000	100.5	16.6898
3550.000000	100.5	17.2664
3600.000000	100.5	17.8750
3650.000000	100.5	18.4342
3700.000000	100.6	18.9237
3750.000000	100.7	19.3737
3820.000000	100.8	19.9554
3870.000000	100.9	20.3503
3950.000000	101.1	20.9611
4000.000000	101.3	21.2308
4060.000000	101.5	21.2900
4120.000000	101.7	20.9854
4180.000000	102.0	20.2824
4250.000000	102.3	18.9255
4310.000000	102.5	17.3374
4370.000000	102.6	15.4027
4440.000000	102.7	12.8093
4500.000000	102.7	10.5519
4550.000000	102.6	8.9234
4620.000000	102.4	7.4278
4680.000000	102.3	7.0167
4750.000000	102.3	7.1748
4820.000000	102.5	7.0424
4870.000000	102.7	6.2118
4940.000000	103.0	3.6968
5000.000000	103.2	0.4440
5080.000000	103.2	-4.7150
5150.000000	103.0	-9.2104
5220.000000	102.6	-13.1626
5300.000000	102.0	-16.7424
5380.000000	101.4	-19.2848
5450.000000	100.8	-20.7285
5520.000000	100.2	-21.5025
5600.000000	99.5	-21.6435
5700.000000	98.7	-20.9004
5800.000000	97.9	-19.4248
5900.000000	97.3	-17.4393
6000.000000	96.7	-15.0170
6080.000000	96.3	-12.8229
6150.000000	96.0	-10.7709
6220.000000	95.7	-8.6360
6300.000000	95.5	-6.1095
6400.000000	95.2	-2.8112
6500.000000	95.0	0.6199
6600.000000	95.0	4.1102
6700.000000	94.9	7.6010
6800.000000	95.0	11.0815
6900.000000	95.2	14.5203
7000.000000	95.4	17.8337
7100.000000	95.8	20.9363
7200.000000	96.2	23.7668
7300.000000	96.8	26.2237
7400.000000	97.6	28.1098
7500.000000	98.4	29.1459
7620.000000	99.7	28.7538
7750.000000	101.1	25.3380
7880.000000	102.3	17.5982
8000.000000	103.1	6.3552
8120.000000	103.2	-7.3947
8250.000000	102.7	-21.9522
8380.000000	101.5	-33.0931
8500.000000	100.0	-39.2866
8620.000000	98.3	-41.9977
8750.000000	96.6	-42.0997
8850.000000	95.4	-40.8099
9000.000000	93.8	-37.4250
9120.000000	92.7	-33.9220
9250.000000	91.7	-29.6338
9380.000000	90.9	-24.9877
9500.000000	90.4	-20.4918
9620.000000	89.9	-15.8748
9750.000000	89.5	-10.7667
9880.000000	89.3	-5.5808
10000.000000	89.3	-0.7771
10150.000000	89.4	5.1915
10300.000000	89.7	11.0103
10440.000000	90.3	16.0901
10600.000000	91.3	21.1064
10750.000000	92.6	24.4718
10900.000000	94.1	25.6051
11060.000000	95.9	22.8261
11200.000000	97.3	15.6010
11380.000000	98.3	-0.8126
11500.000000	98.4	-14.5369
11720.000000	97.2	-37.3539
11800.000000	96.4	-43.2013
12060.000000	93.0	-51.9089
12200.000000	91.0	-51.7185
12410.000000	88.2	-47.8981
12500.000000	87.2	-45.4706
12650.000000	85.6	-40.7842
12800.000000	84.3	-35.5540
13150.000000	81.9	-22.1989
13200.000000	81.7	-20.2130
13400.000000	80.8	-12.1714
13600.000000	80.2	-4.0430
13800.000000	79.7	4.0957
14000.000000	79.4	12.1909
14300.000000	79.4	24.1280
14500.000000	79.6	31.8244
14750.000000	80.4	40.8781
15000.000000	81.7	48.7784
15250.000000	83.7	54.4189
15500.000000	85.9	55.7073
15750.000000	88.1	49.7233
16000.000000	89.4	35.0530
16250.000000	89.6	15.5155
16500.000000	88.7	-1.4634
16750.000000	87.0	-12.0842
17000.000000	85.3	-18.0792
17250.000000	84.0	-23.3333
17500.000000	83.2	-31.7852
17750.000000	82.4	-45.1450
18000.000000	81.2	-60.1107
18250.000000	79.0	-69.7933
18500.000000	76.1	-68.8406
18750.000000	72.5	-56.2672
19000.000000	68.6	-35.6400
19250.000000	64.8	-14.0104
19500.000000	62.0	2.2927
19750.000000	60.5	11.5973
