* Measurement data measured by REW V5.20.4
* Source: Mic in at front panel (Pink) (Realtek(R) Audio), MICROPHONE (Master Volume), L, volume: 0.250
* Format: 256k Log Swept Sine, 1 sweep at -12.0 dBFS with no timing reference
* Dated: Apr 6, 2022 11:43:53 PM
* REW Settings:
*  C-weighting compensation: Off
*  Target level: 75.0 dB
* Note: MM2 Bass L
* Measurement: MM2 Bass L
* Smoothing: 1/12 octave
* Frequency Step: 1/48 octave
* Start Frequency: 20.000 Hz
*
* Freq(Hz)	SPL(dB)	Phase(degrees)
20.000000	100.185	-120.3789
20.299999	100.210	-120.5745
20.600000	100.255	-120.7356
20.900000	100.321	-120.9124
21.200001	100.405	-121.1407
21.400000	100.469	-121.3307
21.799999	100.613	-121.8033
22.000000	100.690	-122.0838
22.400000	100.847	-122.7218
22.700001	100.965	-123.2553
23.000000	101.081	-123.8234
23.299999	101.191	-124.4156
23.600000	101.296	-125.0225
24.000000	101.425	-125.8411
24.299999	101.512	-126.4527
24.700001	101.614	-127.2554
25.000000	101.680	-127.8430
25.400000	101.754	-128.6040
25.799999	101.816	-129.3399
26.200001	101.867	-130.0556
26.500000	101.899	-130.5833
26.900000	101.930	-131.2799
27.200001	101.946	-131.8004
27.600000	101.960	-132.4957
28.000000	101.967	-133.1972
28.500000	101.973	-134.0914
29.000000	101.980	-135.0136
29.500000	101.988	-135.9666
30.000000	101.999	-136.9448
30.400000	102.014	-137.7388
30.700001	102.030	-138.3378
31.100000	102.057	-139.1394
31.500000	102.092	-139.9431
32.000000	102.143	-140.9482
32.500000	102.197	-141.9449
33.000000	102.256	-142.9141
33.500000	102.317	-143.8341
34.000000	102.380	-144.6870
34.500000	102.443	-145.4657
35.000000	102.505	-146.1725
35.500000	102.565	-146.8161
36.000000	102.623	-147.4080
36.500000	102.675	-147.9600
37.000000	102.718	-148.4851
37.500000	102.751	-148.9944
38.200001	102.778	-149.6996
38.700001	102.785	-150.2089
39.500000	102.786	-151.0514
40.000000	102.787	-151.6005
40.599998	102.791	-152.2816
41.200001	102.802	-152.9788
41.799999	102.817	-153.6794
42.500000	102.842	-154.4834
43.099998	102.869	-155.1504
43.700001	102.898	-155.7924
44.400002	102.931	-156.5085
45.000000	102.956	-157.0948
45.500000	102.973	-157.5648
46.200001	102.991	-158.1966
46.799999	103.002	-158.7177
47.500000	103.007	-159.3105
48.200001	103.005	-159.8986
48.700001	103.000	-160.3194
49.400002	102.991	-160.9076
50.000000	102.987	-161.4073
50.799999	102.989	-162.0684
51.500000	102.998	-162.6463
52.200001	103.007	-163.2167
53.000000	103.014	-163.8394
53.799999	103.020	-164.4209
54.500000	103.027	-164.9022
55.200001	103.035	-165.3641
56.000000	103.044	-165.8718
57.000000	103.052	-166.4878
58.000000	103.054	-167.0938
59.000000	103.052	-167.6893
60.000000	103.051	-168.2802
60.799999	103.051	-168.7562
61.500000	103.054	-169.1811
62.200001	103.059	-169.6213
63.000000	103.068	-170.1472
64.000000	103.078	-170.8325
65.000000	103.081	-171.5188
66.000000	103.077	-172.1326
67.000000	103.083	-172.6459
68.000000	103.104	-173.1602
69.000000	103.122	-173.7530
70.000000	103.122	-174.3625
71.000000	103.108	-174.9145
72.000000	103.093	-175.4344
73.000000	103.079	-175.9710
74.000000	103.065	-176.5215
75.000000	103.050	-177.0606
76.199997	103.033	-177.6793
77.500000	103.016	-178.3204
78.800003	103.001	-178.9364
80.000000	102.988	-179.4901
81.199997	102.974	179.9622
82.500000	102.958	179.3744
83.800003	102.941	178.8046
85.000000	102.928	178.2973
86.199997	102.916	177.7997
87.500000	102.904	177.2561
88.500000	102.891	176.8278
90.000000	102.868	176.1662
91.199997	102.847	175.6247
92.500000	102.822	175.0394
93.800003	102.797	174.4700
95.000000	102.773	173.9649
96.199997	102.748	173.4785
97.500000	102.717	172.9700
98.800003	102.680	172.4782
100.000000	102.644	172.0386
101.500000	102.599	171.5114
103.000000	102.561	171.0122
104.400002	102.531	170.5669
106.000000	102.498	170.0685
107.500000	102.463	169.5977
109.000000	102.424	169.1135
110.599998	102.380	168.5803
112.000000	102.340	168.1093
113.800003	102.280	167.5201
115.000000	102.231	167.1510
117.199997	102.123	166.5637
118.000000	102.081	166.3869
120.599998	101.979	165.8839
122.000000	101.951	165.5773
124.099998	101.925	165.0622
125.000000	101.913	164.8457
126.500000	101.888	164.5063
128.000000	101.854	164.1876
131.500000	101.753	163.4540
132.000000	101.738	163.3492
134.000000	101.682	162.9348
136.000000	101.630	162.5233
138.000000	101.575	162.1120
140.000000	101.516	161.7108
143.000000	101.428	161.1558
145.000000	101.370	160.8232
147.500000	101.296	160.4561
150.000000	101.223	160.1808
152.500000	101.161	160.0221
155.000000	101.113	159.9001
157.500000	101.070	159.6525
160.000000	101.026	159.2504
162.500000	100.985	158.7741
165.000000	100.938	158.2973
167.500000	100.871	157.8638
170.000000	100.780	157.4810
172.500000	100.676	157.1404
175.000000	100.573	156.8159
177.500000	100.479	156.4727
180.000000	100.401	156.1066
182.500000	100.342	155.7557
185.000000	100.296	155.4625
187.500000	100.256	155.2143
190.000000	100.216	154.9724
192.500000	100.172	154.7280
195.000000	100.125	154.4908
197.500000	100.069	154.2573
200.000000	100.003	154.0283
203.000000	99.915	153.7878
206.000000	99.831	153.5775
209.000000	99.751	153.3581
212.000000	99.670	153.1226
214.000000	99.613	152.9716
218.000000	99.494	152.7331
220.000000	99.435	152.6487
224.000000	99.326	152.5017
227.000000	99.252	152.3829
230.000000	99.183	152.2573
233.000000	99.114	152.1307
236.000000	99.047	152.0013
240.000000	98.953	151.8184
243.000000	98.879	151.6799
247.000000	98.775	151.5220
250.000000	98.696	151.4443
254.000000	98.595	151.4054
258.000000	98.506	151.4001
262.000000	98.426	151.3581
265.000000	98.365	151.2959
269.000000	98.280	151.2112
272.000000	98.214	151.1700
276.000000	98.126	151.1515
280.000000	98.042	151.1603
285.000000	97.950	151.1700
290.000000	97.870	151.1086
295.000000	97.784	150.9629
300.000000	97.688	150.8273
304.000000	97.609	150.7626
307.000000	97.551	150.7339
311.000000	97.473	150.7086
315.000000	97.391	150.6919
320.000000	97.285	150.6996
325.000000	97.182	150.7559
330.000000	97.084	150.8414
335.000000	96.989	150.9263
340.000000	96.894	150.9982
345.000000	96.799	151.0663
350.000000	96.707	151.1479
355.000000	96.619	151.2487
360.000000	96.532	151.3647
365.000000	96.443	151.4919
370.000000	96.352	151.6302
375.000000	96.263	151.7802
382.000000	96.144	152.0077
387.000000	96.062	152.1803
395.000000	95.934	152.4726
400.000000	95.855	152.6632
406.000000	95.760	152.8926
412.000000	95.664	153.1205
418.000000	95.569	153.3636
425.000000	95.462	153.6895
431.000000	95.377	153.9971
437.000000	95.299	154.3057
444.000000	95.212	154.6494
450.000000	95.141	154.9146
455.000000	95.083	155.0986
462.000000	94.996	155.3130
468.000000	94.914	155.5087
475.000000	94.816	155.7902
482.000000	94.721	156.1098
487.000000	94.652	156.3477
494.000000	94.553	156.7098
500.000000	94.471	157.0613
508.000000	94.370	157.5552
515.000000	94.288	157.9759
522.000000	94.205	158.3898
530.000000	94.110	158.8813
538.000000	94.020	159.3954
545.000000	93.944	159.8501
552.000000	93.872	160.3065
560.000000	93.791	160.8210
570.000000	93.692	161.4494
580.000000	93.591	162.0919
590.000000	93.487	162.7678
600.000000	93.385	163.4876
608.000000	93.311	164.0814
615.000000	93.251	164.6017
622.000000	93.191	165.1313
630.000000	93.123	165.7667
640.000000	93.045	166.5986
650.000000	92.976	167.4438
660.000000	92.921	168.2765
670.000000	92.878	169.0394
680.000000	92.835	169.7277
690.000000	92.782	170.4004
700.000000	92.722	171.1036
710.000000	92.664	171.8467
720.000000	92.610	172.6094
730.000000	92.560	173.3803
740.000000	92.513	174.1621
750.000000	92.468	174.9577
762.000000	92.417	175.9305
775.000000	92.370	177.0002
788.000000	92.330	178.0791
800.000000	92.302	179.0936
812.000000	92.286	-179.8763
825.000000	92.283	-178.8016
838.000000	92.287	-177.8295
850.000000	92.286	-176.9964
862.000000	92.278	-176.1694
875.000000	92.267	-175.2506
885.000000	92.262	-174.5287
900.000000	92.261	-173.4452
912.000000	92.264	-172.5800
925.000000	92.274	-171.6485
938.000000	92.290	-170.7421
950.000000	92.308	-169.9391
962.000000	92.327	-169.1608
975.000000	92.348	-168.3278
988.000000	92.370	-167.4931
1000.000000	92.391	-166.7108
1015.000000	92.424	-165.7018
1030.000000	92.468	-164.6908
1044.000000	92.523	-163.8185
1060.000000	92.585	-162.9499
1075.000000	92.633	-162.1852
1090.000000	92.675	-161.3658
1106.000000	92.731	-160.3885
1120.000000	92.800	-159.4832
1138.000000	92.921	-158.3960
1150.000000	93.011	-157.7986
1172.000000	93.166	-156.9748
1180.000000	93.216	-156.7272
1206.000000	93.366	-156.0069
1220.000000	93.440	-155.6797
1241.000000	93.535	-155.2378
1250.000000	93.569	-155.0461
1265.000000	93.619	-154.7061
1280.000000	93.663	-154.3361
1315.000000	93.760	-153.3722
1320.000000	93.775	-153.2287
1340.000000	93.832	-152.6497
1360.000000	93.888	-152.0481
1380.000000	93.943	-151.3918
1400.000000	94.005	-150.6586
1430.000000	94.133	-149.5179
1450.000000	94.236	-148.8300
1475.000000	94.372	-148.0423
1500.000000	94.521	-147.2754
1525.000000	94.684	-146.4836
1550.000000	94.863	-145.6382
1575.000000	95.045	-144.7557
1600.000000	95.203	-143.9303
1625.000000	95.291	-143.2155
1650.000000	95.297	-142.5667
1675.000000	95.251	-141.9340
1700.000000	95.203	-141.3041
1725.000000	95.192	-140.6832
1750.000000	95.233	-140.0512
1775.000000	95.327	-139.3689
1800.000000	95.467	-138.6447
1825.000000	95.637	-137.9512
1850.000000	95.820	-137.3322
1875.000000	96.005	-136.7751
1900.000000	96.190	-136.2468
1925.000000	96.375	-135.7146
1950.000000	96.565	-135.1700
1975.000000	96.765	-134.6534
2000.000000	96.969	-134.2163
2030.000000	97.212	-133.8057
2060.000000	97.448	-133.4852
2090.000000	97.677	-133.2368
2120.000000	97.898	-133.0565
2140.000000	98.040	-132.9575
2180.000000	98.325	-132.7640
2200.000000	98.473	-132.6859
2240.000000	98.775	-132.6411
2270.000000	99.000	-132.7089
2300.000000	99.219	-132.8274
2330.000000	99.436	-132.9672
2360.000000	99.658	-133.1495
2400.000000	99.959	-133.5436
2430.000000	100.181	-133.9706
2470.000000	100.463	-134.6846
2500.000000	100.662	-135.3024
2540.000000	100.908	-136.1769
2580.000000	101.142	-137.0763
2620.000000	101.370	-138.0544
2650.000000	101.531	-138.8580
2690.000000	101.729	-139.9804
2720.000000	101.867	-140.8243
2760.000000	102.044	-141.9608
2800.000000	102.212	-143.1599
2850.000000	102.401	-144.7676
2900.000000	102.557	-146.4448
2950.000000	102.676	-148.0709
3000.000000	102.773	-149.5986
3040.000000	102.840	-150.7746
3070.000000	102.887	-151.6210
3110.000000	102.947	-152.6751
3150.000000	103.015	-153.6491
3200.000000	103.112	-154.8157
3250.000000	103.220	-155.9821
3300.000000	103.330	-157.1567
3350.000000	103.440	-158.3106
3400.000000	103.551	-159.4697
3450.000000	103.658	-160.6751
3500.000000	103.755	-161.9038
3550.000000	103.853	-163.1510
3600.000000	103.961	-164.4814
3650.000000	104.078	-165.9681
3700.000000	104.197	-167.6342
3750.000000	104.315	-169.4595
3820.000000	104.478	-172.2863
3870.000000	104.584	-174.4889
3950.000000	104.724	-178.2565
4000.000000	104.785	179.2143
4060.000000	104.811	175.9620
4120.000000	104.764	172.5186
4180.000000	104.630	168.9859
4250.000000	104.356	164.9048
4310.000000	104.024	161.6157
4370.000000	103.623	158.6309
4440.000000	103.093	155.5576
4500.000000	102.599	153.2852
4550.000000	102.165	151.6675
4620.000000	101.534	149.8388
4680.000000	100.980	148.7010
4750.000000	100.334	147.8905
4820.000000	99.711	147.5637
4870.000000	99.287	147.5659
4940.000000	98.725	147.8438
5000.000000	98.271	148.3046
5080.000000	97.696	149.2347
5150.000000	97.221	150.3633
5220.000000	96.775	151.7479
5300.000000	96.301	153.5557
5380.000000	95.857	155.5328
5450.000000	95.482	157.3810
5520.000000	95.115	159.3681
5600.000000	94.716	161.8219
5700.000000	94.269	165.0820
5800.000000	93.893	168.4300
5900.000000	93.583	171.8219
6000.000000	93.335	175.3219
6080.000000	93.186	178.2039
6150.000000	93.095	-179.2441
6220.000000	93.038	-176.6917
6300.000000	93.014	-173.7790
6400.000000	93.042	-170.1229
6500.000000	93.142	-166.4641
6600.000000	93.319	-162.8725
6700.000000	93.572	-159.4050
6800.000000	93.904	-156.0677
6900.000000	94.328	-152.8884
7000.000000	94.854	-149.9613
7100.000000	95.489	-147.4113
7200.000000	96.243	-145.3733
7300.000000	97.127	-144.0584
7400.000000	98.130	-143.8038
7500.000000	99.203	-145.0365
7620.000000	100.470	-149.1073
7750.000000	101.609	-157.3551
7880.000000	102.254	-169.3833
8000.000000	102.261	177.8507
8120.000000	101.697	165.9304
8250.000000	100.584	156.0094
8380.000000	99.159	149.8082
8500.000000	97.744	147.0111
8620.000000	96.358	146.4163
8750.000000	94.971	147.7219
8850.000000	94.019	149.9358
9000.000000	92.860	154.9891
9120.000000	92.264	160.0452
9250.000000	92.030	165.6926
9380.000000	92.209	170.6287
9500.000000	92.657	173.9376
9620.000000	93.283	175.6727
9750.000000	94.064	175.4522
9880.000000	94.848	172.6531
10000.000000	95.453	167.4867
10150.000000	95.867	157.7544
10300.000000	95.731	145.8813
10440.000000	95.051	135.1673
10600.000000	93.693	125.8778
10750.000000	92.026	121.0334
10900.000000	90.175	119.6057
11060.000000	88.190	120.9144
11200.000000	86.565	123.6943
11380.000000	84.717	128.7006
11500.000000	83.648	132.6397
11720.000000	82.012	140.6083
11800.000000	81.513	143.6481
12060.000000	80.207	153.6766
12200.000000	79.678	159.0355
12410.000000	79.080	166.9301
12500.000000	78.889	170.2412
12650.000000	78.649	175.6308
12800.000000	78.503	-179.1884
13150.000000	78.483	-168.3053
13200.000000	78.511	-166.9269
13400.000000	78.670	-161.9689
13600.000000	78.861	-158.0214
13800.000000	79.041	-155.2056
14000.000000	79.191	-153.5091
14300.000000	79.351	-152.5784
14500.000000	79.396	-152.4570
14750.000000	79.378	-152.1121
15000.000000	79.323	-151.0898
15250.000000	79.294	-149.5539
15500.000000	79.316	-148.3820
15750.000000	79.345	-148.8844
16000.000000	79.293	-152.3732
16250.000000	78.982	-159.1313
16500.000000	78.121	-166.2811
16750.000000	76.537	-167.4608
17000.000000	74.604	-158.1700
17250.000000	73.619	-141.7335
17500.000000	74.456	-127.0956
17750.000000	76.025	-120.3402
18000.000000	77.373	-121.3765
18250.000000	78.288	-127.4046
18500.000000	78.773	-136.2575
18750.000000	78.809	-146.8358
19000.000000	78.323	-157.9335
19250.000000	77.262	-167.5927
19500.000000	75.681	-174.0213
19750.000000	73.845	-176.9678
