* Measurement data measured by REW V5.20.4
* Source: Mic in at front panel (Pink) (Realtek(R) Audio), MICROPHONE (Master Volume), L, volume: 0.250
* Format: 256k Log Swept Sine, 1 sweep at -12.0 dBFS with no timing reference
* Dated: May 11, 2022 4:09:20 PM
* REW Settings:
*  C-weighting compensation: Off
*  Target level: 75.0 dB
* Note: KBEAR Vent MP L
* Measurement: EJ07M R May 11
* Smoothing: 1/12 octave
* Frequency Step: 1/48 octave
* Start Frequency: 20.000 Hz
*
* Freq(Hz)	SPL(dB)	Phase(degrees)
20.000000	100.667	55.9903
20.299999	100.727	55.2401
20.600000	100.785	54.4980
20.900000	100.842	53.7484
21.200001	100.898	52.9839
21.400000	100.935	52.4682
21.799999	101.008	51.4316
22.000000	101.044	50.9163
22.400000	101.115	49.9012
22.700001	101.167	49.1561
23.000000	101.218	48.4242
23.299999	101.268	47.7039
23.600000	101.316	46.9954
24.000000	101.378	46.0707
24.299999	101.421	45.3941
24.700001	101.475	44.5146
25.000000	101.513	43.8694
25.400000	101.560	43.0231
25.799999	101.606	42.1881
26.200001	101.650	41.3645
26.500000	101.681	40.7567
26.900000	101.719	39.9624
27.200001	101.745	39.3786
27.600000	101.778	38.6129
28.000000	101.810	37.8558
28.500000	101.850	36.9160
29.000000	101.891	35.9874
29.500000	101.929	35.0800
30.000000	101.966	34.1983
30.400000	101.995	33.5082
30.700001	102.018	32.9965
31.100000	102.048	32.3202
31.500000	102.076	31.6518
32.000000	102.107	30.8315
32.500000	102.133	30.0293
33.000000	102.157	29.2383
33.500000	102.181	28.4484
34.000000	102.205	27.6570
34.500000	102.226	26.8723
35.000000	102.246	26.1055
35.500000	102.266	25.3610
36.000000	102.288	24.6329
36.500000	102.310	23.9132
37.000000	102.329	23.2003
37.500000	102.341	22.5028
38.200001	102.346	21.5754
38.700001	102.344	20.9537
39.500000	102.340	20.0033
40.000000	102.341	19.4156
40.599998	102.349	18.7023
41.200001	102.360	17.9736
41.799999	102.371	17.2274
42.500000	102.381	16.3435
43.099998	102.384	15.5931
43.700001	102.383	14.8660
44.400002	102.376	14.0550
45.000000	102.365	13.3960
45.500000	102.355	12.8750
46.200001	102.343	12.1795
46.799999	102.336	11.5916
47.500000	102.324	10.8931
48.200001	102.302	10.2022
48.700001	102.281	9.7389
49.400002	102.252	9.1489
50.000000	102.233	8.6802
50.799999	102.220	8.0574
51.500000	102.212	7.4935
52.200001	102.198	6.9366
53.000000	102.177	6.3552
53.799999	102.162	5.8247
54.500000	102.157	5.3426
55.200001	102.155	4.8047
56.000000	102.148	4.1424
57.000000	102.126	3.3195
58.000000	102.099	2.5159
59.000000	102.071	1.6977
60.000000	102.039	0.8824
60.799999	102.013	0.2573
61.500000	101.990	-0.2613
62.200001	101.969	-0.7473
63.000000	101.947	-1.2601
64.000000	101.918	-1.8446
65.000000	101.880	-2.3776
66.000000	101.833	-2.8915
67.000000	101.776	-3.4327
68.000000	101.712	-4.0344
69.000000	101.646	-4.7496
70.000000	101.573	-5.6060
71.000000	101.482	-6.4940
72.000000	101.381	-7.1072
73.000000	101.329	-7.3180
74.000000	101.355	-7.4386
75.000000	101.420	-7.7479
76.199997	101.480	-8.3290
77.500000	101.494	-9.0182
78.800003	101.466	-9.6658
80.000000	101.422	-10.2658
81.199997	101.373	-10.9075
82.500000	101.317	-11.6375
83.800003	101.257	-12.3472
85.000000	101.195	-12.9168
86.199997	101.127	-13.3781
87.500000	101.051	-13.8140
88.500000	100.992	-14.1342
90.000000	100.916	-14.6208
91.199997	100.872	-15.0975
92.500000	100.822	-15.6880
93.800003	100.762	-16.1768
95.000000	100.709	-16.4973
96.199997	100.661	-16.7761
97.500000	100.601	-17.0858
98.800003	100.528	-17.3897
100.000000	100.455	-17.6467
101.500000	100.368	-17.9434
103.000000	100.294	-18.2372
104.400002	100.232	-18.5166
106.000000	100.166	-18.8282
107.500000	100.107	-19.1010
109.000000	100.054	-19.3641
110.599998	100.007	-19.6793
112.000000	99.968	-20.0027
113.800003	99.912	-20.4474
115.000000	99.870	-20.7396
117.199997	99.782	-21.2231
118.000000	99.749	-21.3766
120.599998	99.649	-21.8347
122.000000	99.597	-22.0842
124.099998	99.520	-22.4614
125.000000	99.486	-22.6207
126.500000	99.431	-22.8827
128.000000	99.375	-23.1418
131.500000	99.241	-23.7074
132.000000	99.223	-23.7816
134.000000	99.152	-24.0697
136.000000	99.082	-24.3641
138.000000	99.005	-24.6693
140.000000	98.919	-24.9597
143.000000	98.792	-25.3577
145.000000	98.712	-25.6086
147.500000	98.610	-25.8915
150.000000	98.503	-26.1101
152.500000	98.404	-26.2762
155.000000	98.320	-26.4333
157.500000	98.246	-26.5951
160.000000	98.176	-26.7672
162.500000	98.105	-26.9567
165.000000	98.024	-27.1522
167.500000	97.925	-27.3264
170.000000	97.808	-27.4536
172.500000	97.681	-27.5365
175.000000	97.556	-27.6034
177.500000	97.441	-27.6758
180.000000	97.342	-27.7550
182.500000	97.264	-27.8352
185.000000	97.204	-27.9156
187.500000	97.151	-27.9966
190.000000	97.097	-28.0720
192.500000	97.038	-28.1343
195.000000	96.973	-28.1805
197.500000	96.901	-28.2069
200.000000	96.825	-28.2068
203.000000	96.734	-28.1728
206.000000	96.649	-28.1294
209.000000	96.564	-28.1053
212.000000	96.476	-28.0912
214.000000	96.415	-28.0724
218.000000	96.288	-27.9911
220.000000	96.225	-27.9310
224.000000	96.109	-27.7986
227.000000	96.032	-27.7068
230.000000	95.958	-27.6254
233.000000	95.884	-27.5504
236.000000	95.811	-27.4787
240.000000	95.712	-27.3900
243.000000	95.637	-27.3217
247.000000	95.532	-27.2015
250.000000	95.452	-27.0712
254.000000	95.353	-26.8355
258.000000	95.267	-26.5729
262.000000	95.188	-26.3558
265.000000	95.128	-26.2275
269.000000	95.042	-26.0594
272.000000	94.976	-25.9113
276.000000	94.890	-25.6783
280.000000	94.810	-25.4193
285.000000	94.723	-25.0975
290.000000	94.648	-24.8511
295.000000	94.569	-24.6979
300.000000	94.479	-24.5452
304.000000	94.407	-24.3828
307.000000	94.354	-24.2423
311.000000	94.283	-24.0446
315.000000	94.209	-23.8422
320.000000	94.114	-23.5679
325.000000	94.021	-23.2504
330.000000	93.934	-22.9047
335.000000	93.851	-22.5597
340.000000	93.768	-22.2303
345.000000	93.687	-21.9087
350.000000	93.609	-21.5784
355.000000	93.536	-21.2343
360.000000	93.464	-20.8809
365.000000	93.390	-20.5229
370.000000	93.315	-20.1592
375.000000	93.242	-19.7882
382.000000	93.146	-19.2583
387.000000	93.081	-18.8744
395.000000	92.980	-18.2515
400.000000	92.918	-17.8589
406.000000	92.844	-17.3920
412.000000	92.771	-16.9314
418.000000	92.697	-16.4604
425.000000	92.617	-15.8752
431.000000	92.557	-15.3515
437.000000	92.502	-14.8334
444.000000	92.443	-14.2535
450.000000	92.397	-13.7928
455.000000	92.359	-13.4510
462.000000	92.301	-13.0226
468.000000	92.243	-12.6483
475.000000	92.174	-12.1632
482.000000	92.107	-11.6459
487.000000	92.059	-11.2711
494.000000	91.989	-10.7249
500.000000	91.932	-10.2241
508.000000	91.864	-9.5421
515.000000	91.809	-8.9624
522.000000	91.753	-8.3885
530.000000	91.687	-7.7098
538.000000	91.627	-7.0063
545.000000	91.578	-6.3877
552.000000	91.533	-5.7708
560.000000	91.485	-5.0770
570.000000	91.428	-4.2329
580.000000	91.369	-3.3866
590.000000	91.306	-2.5212
600.000000	91.246	-1.6270
608.000000	91.205	-0.9020
615.000000	91.173	-0.2710
622.000000	91.141	0.3666
630.000000	91.106	1.1226
640.000000	91.067	2.1018
650.000000	91.038	3.0900
660.000000	91.023	4.0585
670.000000	91.019	4.9493
680.000000	91.015	5.7582
690.000000	91.000	6.5450
700.000000	90.979	7.3572
710.000000	90.959	8.2042
720.000000	90.944	9.0654
730.000000	90.931	9.9292
740.000000	90.922	10.7986
750.000000	90.913	11.6767
762.000000	90.907	12.7423
775.000000	90.906	13.9067
788.000000	90.913	15.0754
800.000000	90.928	16.1682
812.000000	90.954	17.2708
825.000000	90.998	18.4142
838.000000	91.048	19.4430
850.000000	91.088	20.3178
862.000000	91.121	21.1785
875.000000	91.152	22.1268
885.000000	91.179	22.8682
900.000000	91.223	23.9788
912.000000	91.262	24.8661
925.000000	91.308	25.8234
938.000000	91.359	26.7595
950.000000	91.407	27.5979
962.000000	91.455	28.4276
975.000000	91.508	29.3465
988.000000	91.566	30.3078
1000.000000	91.630	31.2326
1015.000000	91.731	32.3932
1030.000000	91.856	33.4470
1044.000000	91.982	34.2497
1060.000000	92.118	34.9633
1075.000000	92.227	35.5385
1090.000000	92.325	36.1123
1106.000000	92.428	36.7496
1120.000000	92.519	37.3229
1138.000000	92.638	38.0623
1150.000000	92.717	38.5423
1172.000000	92.864	39.3751
1180.000000	92.918	39.6636
1206.000000	93.103	40.5116
1220.000000	93.203	40.8774
1241.000000	93.339	41.3417
1250.000000	93.390	41.5347
1265.000000	93.469	41.8710
1280.000000	93.541	42.2339
1315.000000	93.702	43.1852
1320.000000	93.725	43.3285
1340.000000	93.819	43.9119
1360.000000	93.913	44.5266
1380.000000	94.008	45.2018
1400.000000	94.113	45.9563
1430.000000	94.310	47.1280
1450.000000	94.463	47.8339
1475.000000	94.668	48.6339
1500.000000	94.893	49.3876
1525.000000	95.139	50.1225
1550.000000	95.405	50.8512
1575.000000	95.678	51.5440
1600.000000	95.925	52.0966
1625.000000	96.100	52.4496
1650.000000	96.188	52.6493
1675.000000	96.218	52.7531
1700.000000	96.237	52.7865
1725.000000	96.281	52.7585
1750.000000	96.364	52.7058
1775.000000	96.487	52.6839
1800.000000	96.641	52.6992
1825.000000	96.812	52.6918
1850.000000	96.984	52.6288
1875.000000	97.149	52.5316
1900.000000	97.303	52.4398
1925.000000	97.449	52.3907
1950.000000	97.592	52.3966
1975.000000	97.737	52.4205
2000.000000	97.882	52.4125
2030.000000	98.047	52.3519
2060.000000	98.199	52.2685
2090.000000	98.337	52.1811
2120.000000	98.459	52.1014
2140.000000	98.531	52.0773
2180.000000	98.664	52.1836
2200.000000	98.732	52.3212
2240.000000	98.877	52.7569
2270.000000	99.001	53.2523
2300.000000	99.153	53.9125
2330.000000	99.353	54.6826
2360.000000	99.614	55.3905
2400.000000	100.037	55.8590
2430.000000	100.370	55.6977
2470.000000	100.781	54.8515
2500.000000	101.042	53.8971
2540.000000	101.327	52.4752
2580.000000	101.561	51.0988
2620.000000	101.772	49.8046
2650.000000	101.922	48.8608
2690.000000	102.115	47.6147
2720.000000	102.257	46.6743
2760.000000	102.444	45.3556
2800.000000	102.621	43.9022
2850.000000	102.812	41.9035
2900.000000	102.956	39.8003
2950.000000	103.052	37.7470
3000.000000	103.117	35.8065
3040.000000	103.155	34.3120
3070.000000	103.177	33.2304
3110.000000	103.204	31.8603
3150.000000	103.237	30.5534
3200.000000	103.286	28.9230
3250.000000	103.336	27.2208
3300.000000	103.367	25.4474
3350.000000	103.371	23.6820
3400.000000	103.350	21.9734
3450.000000	103.302	20.3379
3500.000000	103.230	18.8151
3550.000000	103.147	17.3995
3600.000000	103.066	16.0141
3650.000000	102.984	14.5839
3700.000000	102.894	13.0970
3750.000000	102.793	11.5970
3820.000000	102.634	9.5323
3870.000000	102.503	8.1398
3950.000000	102.268	6.2054
4000.000000	102.112	5.1782
4060.000000	101.912	4.0718
4120.000000	101.687	3.0832
4180.000000	101.434	2.2076
4250.000000	101.096	1.3285
4310.000000	100.766	0.7734
4370.000000	100.408	0.4946
4440.000000	99.977	0.6431
4500.000000	99.631	1.2887
4550.000000	99.404	2.1080
4620.000000	99.219	3.0580
4680.000000	99.119	3.1921
4750.000000	98.951	2.7820
4820.000000	98.706	2.3948
4870.000000	98.506	2.3158
4940.000000	98.221	2.5004
5000.000000	97.985	2.8805
5080.000000	97.685	3.6595
5150.000000	97.437	4.5964
5220.000000	97.208	5.7291
5300.000000	96.968	7.1763
5380.000000	96.744	8.7156
5450.000000	96.550	10.1179
5520.000000	96.354	11.6019
5600.000000	96.138	13.4186
5700.000000	95.900	15.8113
5800.000000	95.712	18.2383
5900.000000	95.570	20.6666
6000.000000	95.473	23.1515
6080.000000	95.433	25.1731
6150.000000	95.426	26.9315
6220.000000	95.444	28.6508
6300.000000	95.488	30.5645
6400.000000	95.572	32.9143
6500.000000	95.689	35.2377
6600.000000	95.840	37.5257
6700.000000	96.026	39.7937
6800.000000	96.255	42.0916
6900.000000	96.546	44.4125
7000.000000	96.911	46.6583
7100.000000	97.351	48.7061
7200.000000	97.869	50.4607
7300.000000	98.474	51.8121
7400.000000	99.166	52.5927
7500.000000	99.931	52.6004
7620.000000	100.902	51.2875
7750.000000	101.932	47.7638
7880.000000	102.795	41.6204
8000.000000	103.306	33.7960
8120.000000	103.466	24.7885
8250.000000	103.225	15.1434
8380.000000	102.612	7.0250
8500.000000	101.823	1.5936
8620.000000	100.946	-1.8259
8750.000000	100.016	-3.6600
8850.000000	99.370	-4.0585
9000.000000	98.574	-3.5051
9120.000000	98.107	-2.4565
9250.000000	97.769	-1.0442
9380.000000	97.601	0.4082
9500.000000	97.598	1.5439
9620.000000	97.732	2.2347
9750.000000	98.011	2.1974
9880.000000	98.394	0.9882
10000.000000	98.784	-1.5092
10150.000000	99.207	-6.8143
10300.000000	99.412	-14.4731
10440.000000	99.291	-23.0643
10600.000000	98.710	-33.0233
10750.000000	97.751	-40.9180
10900.000000	96.478	-46.4655
11060.000000	94.918	-49.5896
11200.000000	93.505	-50.2668
11380.000000	91.760	-49.0029
11500.000000	90.688	-47.1782
11720.000000	88.966	-42.4744
11800.000000	88.423	-40.4524
12060.000000	86.962	-33.1655
12200.000000	86.366	-28.9801
12410.000000	85.703	-22.5811
12500.000000	85.498	-19.8257
12650.000000	85.255	-15.2339
12800.000000	85.144	-10.6827
13150.000000	85.459	-0.7770
13200.000000	85.575	0.4816
13400.000000	86.212	4.8182
13600.000000	87.097	7.5141
13800.000000	88.157	7.6577
14000.000000	89.256	4.1967
14300.000000	90.479	-8.9727
14500.000000	90.673	-21.5689
14750.000000	90.064	-36.7516
15000.000000	88.715	-46.9735
15250.000000	87.062	-51.4940
15500.000000	85.537	-52.3853
15750.000000	84.459	-52.5444
16000.000000	84.002	-55.2017
16250.000000	84.031	-63.6880
16500.000000	83.985	-79.4625
16750.000000	83.214	-99.0144
17000.000000	81.434	-115.2521
17250.000000	78.774	-123.7682
17500.000000	75.545	-124.9841
17750.000000	72.073	-121.3069
18000.000000	68.625	-114.7613
18250.000000	65.393	-106.4946
18500.000000	62.474	-97.1292
18750.000000	59.876	-87.0114
19000.000000	57.549	-76.2650
19250.000000	55.437	-64.8922
19500.000000	53.495	-52.8420
19750.000000	51.708	-40.0880
20000.000000	50.088	-26.7264
