* Measurement data measured by REW V5.20.4
* Source: Mic in at front panel (Pink) (Realtek(R) Audio), MICROPHONE (Master Volume), L, volume: 0.250
* Format: 256k Log Swept Sine, 1 sweep at -12.0 dBFS with no timing reference
* Dated: Jul 26, 2022 1:27:58 AM
* REW Settings:
*  C-weighting compensation: Off
*  Target level: 75.0 dB
* Note: Little Q L
* Measurement: Little Q L
* Smoothing: 1/12 octave
* Frequency Step: 1/48 octave
* Start Frequency: 20.000 Hz
*
* Freq(Hz)	SPL(dB)	Phase(degrees)
20.000000	103.642	-163.9518
20.299999	103.640	-164.4618
20.600000	103.633	-164.9601
20.900000	103.623	-165.4479
21.200001	103.614	-165.9265
21.400000	103.608	-166.2412
21.799999	103.601	-166.8611
22.000000	103.600	-167.1669
22.400000	103.600	-167.7706
22.700001	103.602	-168.2167
23.000000	103.604	-168.6566
23.299999	103.607	-169.0900
23.600000	103.609	-169.5161
24.000000	103.611	-170.0723
24.299999	103.611	-170.4803
24.700001	103.609	-171.0127
25.000000	103.605	-171.4042
25.400000	103.597	-171.9173
25.799999	103.588	-172.4216
26.200001	103.579	-172.9172
26.500000	103.572	-173.2829
26.900000	103.560	-173.7620
27.200001	103.549	-174.1150
27.600000	103.532	-174.5778
28.000000	103.515	-175.0327
28.500000	103.496	-175.5911
29.000000	103.479	-176.1379
29.500000	103.463	-176.6718
30.000000	103.447	-177.1927
30.400000	103.435	-177.6007
30.700001	103.427	-177.9021
31.100000	103.418	-178.2986
31.500000	103.409	-178.6897
32.000000	103.394	-179.1722
32.500000	103.376	-179.6492
33.000000	103.357	179.8786
33.500000	103.339	179.4110
34.000000	103.322	178.9490
34.500000	103.306	178.4935
35.000000	103.291	178.0459
35.500000	103.277	177.6070
36.000000	103.266	177.1775
36.500000	103.256	176.7576
37.000000	103.244	176.3468
37.500000	103.228	175.9445
38.200001	103.197	175.3942
38.700001	103.168	175.0107
39.500000	103.116	174.4148
40.000000	103.085	174.0528
40.599998	103.052	173.6265
41.200001	103.023	173.2070
41.799999	102.997	172.7941
42.500000	102.970	172.3217
43.099998	102.948	171.9249
43.700001	102.927	171.5351
44.400002	102.900	171.0887
45.000000	102.875	170.7145
45.500000	102.852	170.4092
46.200001	102.819	169.9920
46.799999	102.790	169.6428
47.500000	102.753	169.2432
48.200001	102.712	168.8507
48.700001	102.681	168.5743
49.400002	102.637	168.1934
50.000000	102.602	167.8739
50.799999	102.562	167.4590
51.500000	102.531	167.1057
52.200001	102.501	166.7618
53.000000	102.465	166.3826
53.799999	102.429	166.0176
54.500000	102.401	165.7048
55.200001	102.374	165.3931
56.000000	102.345	165.0354
57.000000	102.307	164.5863
58.000000	102.264	164.1373
59.000000	102.217	163.6895
60.000000	102.167	163.2464
60.799999	102.125	162.8996
61.500000	102.089	162.6034
62.200001	102.053	162.3135
63.000000	102.015	161.9890
64.000000	101.968	161.5940
65.000000	101.921	161.2135
66.000000	101.873	160.8488
67.000000	101.825	160.4999
68.000000	101.779	160.1657
69.000000	101.731	159.8458
70.000000	101.680	159.5391
71.000000	101.625	159.2394
72.000000	101.569	158.9397
73.000000	101.515	158.6403
74.000000	101.462	158.3574
75.000000	101.415	158.1042
76.199997	101.367	157.7992
77.500000	101.322	157.4070
78.800003	101.276	156.9694
80.000000	101.229	156.5610
81.199997	101.179	156.1622
82.500000	101.121	155.7407
83.800003	101.059	155.3325
85.000000	100.998	154.9759
86.199997	100.931	154.6469
87.500000	100.856	154.3235
88.500000	100.797	154.0942
90.000000	100.710	153.7715
91.199997	100.644	153.5231
92.500000	100.576	153.2614
93.800003	100.510	153.0204
95.000000	100.453	152.8237
96.199997	100.399	152.6405
97.500000	100.340	152.4443
98.800003	100.277	152.2480
100.000000	100.215	152.0691
101.500000	100.138	151.8553
103.000000	100.067	151.6553
104.400002	100.007	151.4755
106.000000	99.942	151.2681
107.500000	99.880	151.0660
109.000000	99.814	150.8523
110.599998	99.738	150.6105
112.000000	99.670	150.3887
113.800003	99.581	150.0982
115.000000	99.520	149.9165
117.199997	99.403	149.6596
118.000000	99.361	149.5963
120.599998	99.235	149.4644
122.000000	99.174	149.4054
124.099998	99.090	149.2979
125.000000	99.055	149.2443
126.500000	98.996	149.1489
128.000000	98.934	149.0507
131.500000	98.779	148.8262
132.000000	98.757	148.7942
134.000000	98.673	148.6604
136.000000	98.591	148.5183
138.000000	98.506	148.3831
140.000000	98.420	148.2667
143.000000	98.293	148.1272
145.000000	98.210	148.0528
147.500000	98.103	147.9761
150.000000	97.991	147.9185
152.500000	97.879	147.9038
155.000000	97.776	147.9472
157.500000	97.683	148.0189
160.000000	97.595	148.0761
162.500000	97.505	148.1118
165.000000	97.403	148.1497
167.500000	97.282	148.2205
170.000000	97.140	148.3546
172.500000	96.986	148.5641
175.000000	96.834	148.8350
177.500000	96.689	149.1520
180.000000	96.559	149.5224
182.500000	96.448	149.9721
185.000000	96.357	150.5338
187.500000	96.283	151.2368
190.000000	96.229	152.0927
192.500000	96.202	153.0920
195.000000	96.215	154.1832
197.500000	96.279	155.2441
200.000000	96.394	156.0944
203.000000	96.580	156.5935
206.000000	96.769	156.3926
209.000000	96.905	155.5867
212.000000	96.959	154.4602
214.000000	96.951	153.6871
218.000000	96.860	152.3585
220.000000	96.792	151.8431
224.000000	96.641	151.0839
227.000000	96.529	150.7165
230.000000	96.420	150.4868
233.000000	96.315	150.3511
236.000000	96.212	150.2697
240.000000	96.076	150.2100
243.000000	95.975	150.1976
247.000000	95.839	150.2354
250.000000	95.740	150.3179
254.000000	95.618	150.5067
258.000000	95.512	150.7395
262.000000	95.417	150.9407
265.000000	95.345	151.0641
269.000000	95.245	151.2333
272.000000	95.170	151.3864
276.000000	95.072	151.6285
280.000000	94.981	151.8972
285.000000	94.882	152.2305
290.000000	94.795	152.4966
295.000000	94.704	152.6837
300.000000	94.604	152.8816
304.000000	94.523	153.0914
307.000000	94.465	153.2756
311.000000	94.389	153.5412
315.000000	94.313	153.8201
320.000000	94.221	154.1896
325.000000	94.137	154.5750
330.000000	94.061	154.9415
335.000000	93.986	155.2655
340.000000	93.908	155.5535
345.000000	93.826	155.8334
350.000000	93.745	156.1320
355.000000	93.667	156.4562
360.000000	93.591	156.8003
365.000000	93.512	157.1583
370.000000	93.433	157.5269
375.000000	93.356	157.9041
382.000000	93.255	158.4420
387.000000	93.187	158.8320
395.000000	93.081	159.4697
400.000000	93.016	159.8747
406.000000	92.939	160.3575
412.000000	92.863	160.8329
418.000000	92.788	161.3163
425.000000	92.704	161.9135
431.000000	92.641	162.4461
437.000000	92.584	162.9733
444.000000	92.522	163.5647
450.000000	92.473	164.0355
455.000000	92.433	164.3857
462.000000	92.372	164.8261
468.000000	92.312	165.2109
475.000000	92.240	165.7082
482.000000	92.170	166.2380
487.000000	92.120	166.6215
494.000000	92.048	167.1794
500.000000	91.989	167.6903
508.000000	91.917	168.3859
515.000000	91.860	168.9778
522.000000	91.801	169.5628
530.000000	91.733	170.2529
538.000000	91.670	170.9673
545.000000	91.619	171.5959
552.000000	91.572	172.2236
560.000000	91.521	172.9309
570.000000	91.461	173.7924
580.000000	91.399	174.6545
590.000000	91.334	175.5349
600.000000	91.273	176.4437
608.000000	91.230	177.1790
615.000000	91.196	177.8176
622.000000	91.163	178.4620
630.000000	91.126	179.2253
640.000000	91.085	-179.7864
650.000000	91.054	-178.7899
660.000000	91.037	-177.8131
670.000000	91.032	-176.9134
680.000000	91.026	-176.0954
690.000000	91.010	-175.3007
700.000000	90.987	-174.4832
710.000000	90.966	-173.6338
720.000000	90.949	-172.7718
730.000000	90.936	-171.9083
740.000000	90.925	-171.0401
750.000000	90.916	-170.1639
762.000000	90.909	-169.1012
775.000000	90.906	-167.9422
788.000000	90.912	-166.7821
800.000000	90.926	-165.7004
812.000000	90.951	-164.6112
825.000000	90.993	-163.4834
838.000000	91.042	-162.4718
850.000000	91.081	-161.6147
862.000000	91.112	-160.7746
875.000000	91.142	-159.8520
885.000000	91.167	-159.1323
900.000000	91.210	-158.0562
912.000000	91.247	-157.1982
925.000000	91.292	-156.2759
938.000000	91.343	-155.3812
950.000000	91.393	-154.5916
962.000000	91.443	-153.8303
975.000000	91.498	-153.0221
988.000000	91.554	-152.2226
1000.000000	91.607	-151.4843
1015.000000	91.674	-150.5436
1030.000000	91.752	-149.5998
1044.000000	91.835	-148.7722
1060.000000	91.935	-147.9390
1075.000000	92.025	-147.2321
1090.000000	92.113	-146.5434
1106.000000	92.211	-145.8192
1120.000000	92.302	-145.2113
1138.000000	92.421	-144.4926
1150.000000	92.497	-144.0593
1172.000000	92.625	-143.3295
1180.000000	92.669	-143.0710
1206.000000	92.818	-142.2661
1220.000000	92.900	-141.8943
1241.000000	93.010	-141.4027
1250.000000	93.052	-141.1961
1265.000000	93.116	-140.8397
1280.000000	93.175	-140.4641
1315.000000	93.305	-139.5309
1320.000000	93.324	-139.3969
1340.000000	93.397	-138.8663
1360.000000	93.466	-138.3253
1380.000000	93.530	-137.7370
1400.000000	93.598	-137.0775
1430.000000	93.724	-136.0539
1450.000000	93.818	-135.4382
1475.000000	93.934	-134.7124
1500.000000	94.050	-133.9513
1525.000000	94.171	-133.0818
1550.000000	94.296	-132.0414
1575.000000	94.422	-130.8016
1600.000000	94.525	-129.4094
1625.000000	94.575	-127.8900
1650.000000	94.578	-126.2233
1675.000000	94.579	-124.4624
1700.000000	94.635	-122.7512
1725.000000	94.776	-121.2326
1750.000000	95.000	-119.9516
1775.000000	95.295	-118.8899
1800.000000	95.640	-118.0784
1825.000000	96.001	-117.6030
1850.000000	96.344	-117.4614
1875.000000	96.652	-117.5256
1900.000000	96.923	-117.6299
1925.000000	97.172	-117.6520
1950.000000	97.414	-117.5540
1975.000000	97.664	-117.3838
2000.000000	97.925	-117.2151
2030.000000	98.251	-117.0754
2060.000000	98.592	-117.0605
2090.000000	98.939	-117.2543
2120.000000	99.279	-117.7114
2140.000000	99.495	-118.1466
2180.000000	99.899	-119.2348
2200.000000	100.089	-119.8756
2240.000000	100.437	-121.3427
2270.000000	100.661	-122.5364
2300.000000	100.855	-123.7083
2330.000000	101.030	-124.7897
2360.000000	101.202	-125.7897
2400.000000	101.436	-127.1103
2430.000000	101.614	-128.1598
2470.000000	101.845	-129.6948
2500.000000	102.005	-130.9582
2540.000000	102.192	-132.7324
2580.000000	102.356	-134.5437
2620.000000	102.503	-136.4357
2650.000000	102.598	-137.9383
2690.000000	102.695	-140.0245
2720.000000	102.744	-141.6108
2760.000000	102.780	-143.7362
2800.000000	102.780	-145.8743
2850.000000	102.723	-148.4994
2900.000000	102.601	-150.9377
2950.000000	102.422	-153.0212
3000.000000	102.211	-154.6974
3040.000000	102.035	-155.7883
3070.000000	101.904	-156.4705
3110.000000	101.735	-157.2011
3150.000000	101.584	-157.7686
3200.000000	101.420	-158.3595
3250.000000	101.273	-158.9049
3300.000000	101.124	-159.4020
3350.000000	100.966	-159.7710
3400.000000	100.801	-159.9806
3450.000000	100.630	-160.0431
3500.000000	100.451	-159.9367
3550.000000	100.276	-159.6619
3600.000000	100.114	-159.2717
3650.000000	99.968	-158.8142
3700.000000	99.835	-158.2904
3750.000000	99.720	-157.6726
3820.000000	99.600	-156.6664
3870.000000	99.541	-155.8538
3950.000000	99.497	-154.3634
4000.000000	99.501	-153.3717
4060.000000	99.524	-152.2099
4120.000000	99.550	-151.0930
4180.000000	99.571	-150.0008
4250.000000	99.586	-148.7430
4310.000000	99.596	-147.6344
4370.000000	99.620	-146.4966
4440.000000	99.676	-145.2156
4500.000000	99.748	-144.2074
4550.000000	99.821	-143.4308
4620.000000	99.939	-142.4273
4680.000000	100.053	-141.5959
4750.000000	100.211	-140.5932
4820.000000	100.411	-139.5742
4870.000000	100.585	-138.8757
4940.000000	100.870	-137.9811
5000.000000	101.151	-137.3271
5080.000000	101.569	-136.6458
5150.000000	101.974	-136.2448
5220.000000	102.412	-136.1006
5300.000000	102.938	-136.3751
5380.000000	103.468	-137.2179
5450.000000	103.914	-138.4583
5520.000000	104.334	-140.1512
5600.000000	104.780	-142.6384
5700.000000	105.275	-146.6542
5800.000000	105.662	-151.7219
5900.000000	105.883	-157.6294
6000.000000	105.905	-163.8576
6080.000000	105.782	-168.6941
6150.000000	105.583	-172.6221
6220.000000	105.313	-176.1537
6300.000000	104.938	-179.6058
6400.000000	104.404	177.0377
6500.000000	103.848	174.6966
6600.000000	103.312	173.1948
6700.000000	102.819	172.3481
6800.000000	102.384	172.0283
6900.000000	102.020	172.1065
7000.000000	101.735	172.4221
7100.000000	101.527	172.8303
7200.000000	101.392	173.2332
7300.000000	101.335	173.5306
7400.000000	101.359	173.5837
7500.000000	101.456	173.2491
7620.000000	101.645	172.1658
7750.000000	101.904	169.8712
7880.000000	102.154	166.0228
8000.000000	102.296	160.9179
8120.000000	102.282	154.4661
8250.000000	102.021	146.4584
8380.000000	101.451	138.2864
8500.000000	100.651	131.5074
8620.000000	99.639	126.0562
8750.000000	98.387	121.8817
8850.000000	97.365	119.8718
9000.000000	95.823	118.5677
9120.000000	94.632	118.6966
9250.000000	93.409	119.7230
9380.000000	92.263	121.4760
9500.000000	91.280	123.5827
9620.000000	90.369	126.0390
9750.000000	89.456	129.0220
9880.000000	88.618	132.2743
10000.000000	87.908	135.4501
10150.000000	87.101	139.6085
10300.000000	86.375	143.9402
10440.000000	85.767	148.0842
10600.000000	85.148	152.9136
10750.000000	84.632	157.5084
10900.000000	84.173	162.1295
11060.000000	83.755	167.0780
11200.000000	83.457	171.4028
11380.000000	83.161	176.9232
11500.000000	83.013	-179.4267
11720.000000	82.842	-172.8420
11800.000000	82.812	-170.4893
12060.000000	82.837	-163.0305
12200.000000	82.933	-159.1623
12410.000000	83.189	-153.5970
12500.000000	83.340	-151.3193
12650.000000	83.643	-147.6927
12800.000000	84.014	-144.3102
13150.000000	85.144	-137.6692
13200.000000	85.334	-136.8988
13400.000000	86.154	-134.4007
13600.000000	87.044	-133.0397
13800.000000	87.986	-133.1383
14000.000000	88.970	-135.0270
14300.000000	90.424	-141.7498
14500.000000	91.247	-148.8394
14750.000000	91.960	-159.9849
15000.000000	92.245	-172.4320
15250.000000	92.108	174.9306
15500.000000	91.577	162.4543
15750.000000	90.636	150.1522
16000.000000	89.272	138.3646
16250.000000	87.533	127.8752
16500.000000	85.522	119.6115
16750.000000	83.359	114.1788
17000.000000	81.130	111.6409
17250.000000	78.890	111.6584
17500.000000	76.699	113.7448
17750.000000	74.611	117.4341
18000.000000	72.654	122.3376
18250.000000	70.840	128.1505
18500.000000	69.163	134.6748
18750.000000	67.600	141.8068
19000.000000	66.123	149.4805
19250.000000	64.719	157.6398
19500.000000	63.383	166.2213
19750.000000	62.123	175.1328
20000.000000	60.944	-175.7579
