* Measurement data measured by REW V5.20
* Source: Mic in at front panel (Pink) (Realtek(R) Audio), no input selected, L, volume: 0.250
* Format: 256k Log Swept Sine, 1 sweep at -12.0 dBFS with no timing reference
* Dated: Sep 4, 2021 12:22:42 AM
* REW Settings:
*  C-weighting compensation: Off
*  Target level: 75.0 dB
* Note: KBEAR KS1
* Measurement: Sep 4
* Smoothing: 1/12 octave
* Frequency Step: 1/48 octave
* Start Frequency: 20.000 Hz
*
* Freq(Hz)	SPL(dB)	Phase(degrees)
20.000000	101.1	50.3833
20.299999	101.2	49.6165
20.600000	101.2	48.8620
20.900000	101.3	48.1236
21.200001	101.3	47.4044
21.400000	101.3	46.9361
21.799999	101.4	46.0228
22.000000	101.4	45.5753
22.400000	101.5	44.6924
22.700001	101.5	44.0370
23.000000	101.6	43.3862
23.299999	101.6	42.7429
23.600000	101.6	42.1107
24.000000	101.7	41.2906
24.299999	101.7	40.6940
24.700001	101.7	39.9196
25.000000	101.8	39.3486
25.400000	101.8	38.5922
25.799999	101.8	37.8372
26.200001	101.9	37.0892
26.500000	101.9	36.5399
26.900000	101.9	35.8316
27.200001	101.9	35.3202
27.600000	102.0	34.6598
28.000000	102.0	34.0105
28.500000	102.0	33.1947
29.000000	102.1	32.3704
29.500000	102.1	31.5558
30.000000	102.1	30.7736
30.400000	102.1	30.1750
30.700001	102.1	29.7383
31.100000	102.2	29.1638
31.500000	102.2	28.5915
32.000000	102.2	27.8755
32.500000	102.2	27.1630
33.000000	102.3	26.4614
33.500000	102.3	25.7760
34.000000	102.3	25.1088
34.500000	102.3	24.4598
35.000000	102.3	23.8275
35.500000	102.3	23.2082
36.000000	102.3	22.5970
36.500000	102.3	21.9915
37.000000	102.4	21.3929
37.500000	102.4	20.8063
38.200001	102.4	20.0116
38.700001	102.4	19.4611
39.500000	102.4	18.5967
40.000000	102.4	18.0650
40.599998	102.4	17.4407
41.200001	102.4	16.8361
41.799999	102.4	16.2513
42.500000	102.4	15.5916
43.099998	102.4	15.0438
43.700001	102.4	14.5109
44.400002	102.4	13.9037
45.000000	102.4	13.3912
45.500000	102.4	12.9662
46.200001	102.4	12.3705
46.799999	102.4	11.8606
47.500000	102.4	11.2725
48.200001	102.4	10.6935
48.700001	102.4	10.2828
49.400002	102.3	9.7119
50.000000	102.3	9.2352
50.799999	102.3	8.6336
51.500000	102.3	8.1372
52.200001	102.3	7.6552
53.000000	102.3	7.1114
53.799999	102.3	6.5789
54.500000	102.3	6.1262
55.200001	102.3	5.6824
56.000000	102.3	5.1766
57.000000	102.3	4.5383
58.000000	102.2	3.8934
59.000000	102.2	3.2454
60.000000	102.2	2.6068
60.799999	102.2	2.1146
61.500000	102.1	1.7023
62.200001	102.1	1.3093
63.000000	102.1	0.8859
64.000000	102.0	0.3998
65.000000	102.0	-0.0329
66.000000	102.0	-0.4146
67.000000	101.9	-0.7363
68.000000	101.9	-0.9581
69.000000	101.9	-1.0959
70.000000	101.9	-1.2397
71.000000	101.9	-1.4402
72.000000	102.0	-1.7140
73.000000	102.0	-2.0988
74.000000	102.0	-2.6024
75.000000	102.0	-3.1837
76.199997	102.0	-3.9207
77.500000	102.0	-4.7187
78.800003	102.0	-5.4975
80.000000	102.0	-6.2017
81.199997	102.0	-6.9001
82.500000	101.9	-7.6489
83.800003	101.9	-8.3722
85.000000	101.9	-8.9982
86.199997	101.8	-9.5740
87.500000	101.8	-10.1411
88.500000	101.7	-10.5436
90.000000	101.7	-11.1089
91.199997	101.6	-11.5395
92.500000	101.6	-11.9930
93.800003	101.5	-12.4384
95.000000	101.5	-12.8434
96.199997	101.5	-13.2411
97.500000	101.4	-13.6609
98.800003	101.4	-14.0669
100.000000	101.3	-14.4273
101.500000	101.3	-14.8577
103.000000	101.2	-15.2695
104.400002	101.2	-15.6458
106.000000	101.2	-16.0767
107.500000	101.1	-16.4875
109.000000	101.1	-16.9070
110.599998	101.0	-17.3652
112.000000	101.0	-17.7736
113.800003	100.9	-18.2944
115.000000	100.9	-18.6219
117.199997	100.8	-19.1373
118.000000	100.7	-19.2938
120.599998	100.6	-19.7344
122.000000	100.6	-19.9624
124.099998	100.5	-20.3213
125.000000	100.5	-20.4828
126.500000	100.5	-20.7599
128.000000	100.4	-21.0423
131.500000	100.3	-21.6987
132.000000	100.3	-21.7914
134.000000	100.2	-22.1605
136.000000	100.2	-22.5244
138.000000	100.1	-22.8719
140.000000	100.0	-23.1973
143.000000	99.9	-23.6573
145.000000	99.9	-23.9589
147.500000	99.8	-24.3317
150.000000	99.7	-24.6803
152.500000	99.6	-24.9756
155.000000	99.5	-25.2073
157.500000	99.5	-25.4070
160.000000	99.4	-25.6278
162.500000	99.3	-25.8964
165.000000	99.2	-26.1959
167.500000	99.2	-26.4858
170.000000	99.1	-26.7331
172.500000	99.0	-26.9352
175.000000	98.9	-27.1143
177.500000	98.8	-27.2910
180.000000	98.8	-27.4744
182.500000	98.7	-27.6663
185.000000	98.6	-27.8650
187.500000	98.6	-28.0660
190.000000	98.5	-28.2623
192.500000	98.4	-28.4479
195.000000	98.3	-28.6193
197.500000	98.3	-28.7730
200.000000	98.2	-28.9022
203.000000	98.1	-29.0209
206.000000	98.0	-29.1254
209.000000	98.0	-29.2505
212.000000	97.9	-29.3929
214.000000	97.8	-29.4805
218.000000	97.7	-29.5974
220.000000	97.7	-29.6260
224.000000	97.5	-29.6634
227.000000	97.5	-29.7009
230.000000	97.4	-29.7490
233.000000	97.3	-29.8007
236.000000	97.2	-29.8542
240.000000	97.1	-29.9296
243.000000	97.1	-29.9821
247.000000	97.0	-30.0223
250.000000	96.9	-30.0133
254.000000	96.8	-29.9409
258.000000	96.7	-29.8400
262.000000	96.6	-29.7812
265.000000	96.5	-29.7695
269.000000	96.5	-29.7521
272.000000	96.4	-29.7128
276.000000	96.3	-29.6228
280.000000	96.2	-29.5077
285.000000	96.1	-29.3683
290.000000	96.1	-29.3015
295.000000	96.0	-29.3192
300.000000	95.9	-29.3321
304.000000	95.8	-29.2995
307.000000	95.7	-29.2545
311.000000	95.6	-29.1816
315.000000	95.6	-29.1012
320.000000	95.4	-28.9751
325.000000	95.3	-28.8026
330.000000	95.2	-28.5995
335.000000	95.2	-28.3939
340.000000	95.1	-28.2004
345.000000	95.0	-28.0120
350.000000	94.9	-27.8114
355.000000	94.8	-27.5939
360.000000	94.7	-27.3642
365.000000	94.6	-27.1263
370.000000	94.5	-26.8800
375.000000	94.4	-26.6241
382.000000	94.3	-26.2515
387.000000	94.2	-25.9767
395.000000	94.1	-25.5222
400.000000	94.0	-25.2303
406.000000	93.9	-24.8805
412.000000	93.9	-24.5333
418.000000	93.8	-24.1725
425.000000	93.7	-23.7115
431.000000	93.6	-23.2908
437.000000	93.5	-22.8719
444.000000	93.4	-22.4026
450.000000	93.4	-22.0326
455.000000	93.3	-21.7635
462.000000	93.2	-21.4330
468.000000	93.2	-21.1393
475.000000	93.1	-20.7445
482.000000	93.0	-20.3137
487.000000	92.9	-19.9984
494.000000	92.8	-19.5316
500.000000	92.7	-19.0946
508.000000	92.6	-18.4927
515.000000	92.6	-17.9789
522.000000	92.5	-17.4677
530.000000	92.4	-16.8564
538.000000	92.3	-16.2168
545.000000	92.2	-15.6511
552.000000	92.2	-15.0836
560.000000	92.1	-14.4412
570.000000	92.0	-13.6550
580.000000	91.9	-12.8610
590.000000	91.9	-12.0419
600.000000	91.8	-11.1881
608.000000	91.7	-10.4924
615.000000	91.7	-9.8846
622.000000	91.6	-9.2671
630.000000	91.5	-8.5297
640.000000	91.5	-7.5685
650.000000	91.4	-6.5941
660.000000	91.4	-5.6348
670.000000	91.4	-4.7482
680.000000	91.3	-3.9380
690.000000	91.3	-3.1442
700.000000	91.2	-2.3212
710.000000	91.2	-1.4614
720.000000	91.2	-0.5846
730.000000	91.1	0.2991
740.000000	91.1	1.1929
750.000000	91.1	2.0992
762.000000	91.0	3.2039
775.000000	91.0	4.4154
788.000000	91.0	5.6356
800.000000	91.0	6.7806
812.000000	91.0	7.9402
825.000000	91.0	9.1506
838.000000	91.0	10.2507
850.000000	91.1	11.1953
862.000000	91.1	12.1283
875.000000	91.1	13.1572
885.000000	91.1	13.9618
900.000000	91.1	15.1683
912.000000	91.2	16.1309
925.000000	91.2	17.1642
938.000000	91.2	18.1648
950.000000	91.3	19.0474
962.000000	91.3	19.9030
975.000000	91.4	20.8248
988.000000	91.4	21.7524
1000.000000	91.5	22.6072
1015.000000	91.6	23.6528
1030.000000	91.7	24.6152
1044.000000	91.7	25.3707
1060.000000	91.8	26.0741
1075.000000	91.9	26.7551
1090.000000	91.9	27.6334
1106.000000	92.0	28.7585
1120.000000	92.0	29.7668
1138.000000	92.1	30.9744
1150.000000	92.2	31.7198
1172.000000	92.4	33.0214
1180.000000	92.5	33.4862
1206.000000	92.7	34.9095
1220.000000	92.8	35.5504
1241.000000	93.0	36.3228
1250.000000	93.1	36.6009
1265.000000	93.2	37.0177
1280.000000	93.3	37.3965
1315.000000	93.6	38.2367
1320.000000	93.6	38.3548
1340.000000	93.8	38.8249
1360.000000	93.9	39.3094
1380.000000	94.0	39.8392
1400.000000	94.2	40.4323
1430.000000	94.4	41.3323
1450.000000	94.6	41.8414
1475.000000	94.8	42.3882
1500.000000	95.0	42.8925
1525.000000	95.2	43.3960
1550.000000	95.3	43.9273
1575.000000	95.5	44.4723
1600.000000	95.6	44.9384
1625.000000	95.8	45.2723
1650.000000	96.0	45.5181
1675.000000	96.1	45.7259
1700.000000	96.3	45.9099
1725.000000	96.4	46.0651
1750.000000	96.5	46.2122
1775.000000	96.6	46.3917
1800.000000	96.8	46.5985
1825.000000	96.9	46.7646
1850.000000	97.1	46.8529
1875.000000	97.2	46.8832
1900.000000	97.3	46.8940
1925.000000	97.5	46.9163
1950.000000	97.7	46.9453
1975.000000	97.9	46.9160
2000.000000	98.1	46.7515
2030.000000	98.3	46.3564
2060.000000	98.5	45.8144
2090.000000	98.7	45.2076
2120.000000	98.9	44.5889
2140.000000	99.0	44.2017
2180.000000	99.2	43.5861
2200.000000	99.3	43.3629
2240.000000	99.5	42.9963
2270.000000	99.7	42.6722
2300.000000	99.9	42.1772
2330.000000	100.1	41.4392
2360.000000	100.3	40.4419
2400.000000	100.5	38.7868
2430.000000	100.6	37.4612
2470.000000	100.7	35.8405
2500.000000	100.7	34.7841
2540.000000	100.8	33.5130
2580.000000	100.8	32.3431
2620.000000	100.9	31.2211
2650.000000	100.9	30.3485
2690.000000	100.9	29.0954
2720.000000	100.9	28.1154
2760.000000	100.9	26.8198
2800.000000	100.9	25.5920
2850.000000	100.8	24.2210
2900.000000	100.7	23.0664
2950.000000	100.5	22.1664
3000.000000	100.4	21.5028
3040.000000	100.3	21.1058
3070.000000	100.2	20.8966
3110.000000	100.1	20.7632
3150.000000	100.0	20.7844
3200.000000	99.9	20.9510
3250.000000	99.7	21.2020
3300.000000	99.7	21.5275
3350.000000	99.6	21.9724
3400.000000	99.5	22.5345
3450.000000	99.4	23.1879
3500.000000	99.4	23.9457
3550.000000	99.4	24.7905
3600.000000	99.4	25.6620
3650.000000	99.5	26.5080
3700.000000	99.5	27.3134
3750.000000	99.6	28.0999
3820.000000	99.7	29.1825
3870.000000	99.8	29.9579
3950.000000	100.0	31.2463
4000.000000	100.1	32.0226
4060.000000	100.3	32.8313
4120.000000	100.5	33.4841
4180.000000	100.8	33.9888
4250.000000	101.1	34.3803
4310.000000	101.4	34.5573
4370.000000	101.7	34.5416
4440.000000	102.1	34.1251
4500.000000	102.4	33.3205
4550.000000	102.7	32.3077
4620.000000	103.1	30.3614
4680.000000	103.4	28.2533
4750.000000	103.6	25.3757
4820.000000	103.8	22.0968
4870.000000	103.9	19.5323
4940.000000	104.0	15.7106
5000.000000	104.0	12.3198
5080.000000	103.8	7.8716
5150.000000	103.5	4.2935
5220.000000	103.2	1.1646
5300.000000	102.7	-1.7802
5380.000000	102.2	-4.0214
5450.000000	101.6	-5.4011
5520.000000	101.1	-6.2193
5600.000000	100.5	-6.4688
5700.000000	99.7	-5.7869
5800.000000	98.9	-3.8460
5900.000000	98.2	-0.1862
6000.000000	97.8	5.0029
6080.000000	97.8	8.8620
6150.000000	97.9	11.0013
6220.000000	98.0	12.0034
6300.000000	98.0	12.6422
6400.000000	97.9	13.9071
6500.000000	97.7	16.0187
6600.000000	97.7	18.6835
6700.000000	97.7	21.6007
6800.000000	97.8	24.6215
6900.000000	98.1	27.6445
7000.000000	98.4	30.5457
7100.000000	98.9	33.2072
7200.000000	99.5	35.5322
7300.000000	100.2	37.3747
7400.000000	101.0	38.4810
7500.000000	102.0	38.5078
7620.000000	103.3	36.5315
7750.000000	104.7	31.0115
7880.000000	105.8	21.2950
8000.000000	106.2	9.2416
8120.000000	106.1	-3.6912
8250.000000	105.4	-15.8755
8380.000000	104.2	-24.3307
8500.000000	102.9	-28.6345
8620.000000	101.6	-30.2471
8750.000000	100.4	-29.9223
8850.000000	99.6	-28.7144
9000.000000	98.7	-25.9730
9120.000000	98.3	-23.4078
9250.000000	98.1	-20.6401
9380.000000	98.2	-18.2515
9500.000000	98.5	-16.8358
9620.000000	99.1	-16.7663
9750.000000	99.9	-19.0471
9880.000000	100.8	-24.7444
10000.000000	101.3	-33.5300
10150.000000	101.5	-48.3584
10300.000000	100.9	-64.1388
10440.000000	99.6	-76.1279
10600.000000	97.5	-84.3810
10750.000000	95.2	-87.1578
10900.000000	92.8	-86.4905
11060.000000	90.5	-83.3589
11200.000000	88.6	-79.3603
11380.000000	86.5	-73.1803
11500.000000	85.2	-68.6304
11720.000000	83.3	-59.7339
11800.000000	82.7	-56.3724
12060.000000	80.9	-45.1355
12200.000000	80.2	-38.9481
12410.000000	79.1	-29.5475
12500.000000	78.8	-25.4919
12650.000000	78.2	-18.7101
12800.000000	77.7	-11.9061
13150.000000	76.9	4.0173
13200.000000	76.9	6.2961
13400.000000	76.6	15.3980
13600.000000	76.6	24.4427
13800.000000	76.6	33.3789
14000.000000	76.9	42.1666
14300.000000	77.7	54.9366
14500.000000	78.6	62.9877
14750.000000	80.4	72.0341
15000.000000	82.7	78.8676
15250.000000	85.4	81.2958
15500.000000	87.8	76.1236
15750.000000	89.5	61.5735
16000.000000	89.9	41.5722
16250.000000	89.1	24.2910
16500.000000	87.8	13.8462
16750.000000	86.6	7.6447
17000.000000	86.2	0.2238
17250.000000	86.1	-12.7759
17500.000000	85.6	-30.9698
17750.000000	84.2	-48.3506
18000.000000	81.8	-58.8170
18250.000000	78.7	-61.1495
18500.000000	75.2	-57.5360
18750.000000	71.6	-50.4597
19000.000000	68.1	-41.4917
19250.000000	64.7	-31.4614
19500.000000	61.6	-21.1504
19750.000000	59.0	-12.0404
