* Measurement data measured by REW V5.20.13
* Source: Mic in at front panel (Pink) (Realtek(R) Audio), no input selected, L, volume: 0.250
* Format: 256k Log Swept Sine, 1 sweep at -12.0 dBFS with no timing reference
* Dated: Sep 27, 2022 11:43:14 PM
* REW Settings:
*  C-weighting compensation: Off
*  Target level: 75.0 dB
* Note: KBEAR Rosefinch L
* Measurement: KBEAR Rosefinch L
* Smoothing: 1/12 octave
* Frequency Step: 1/48 octave
* Start Frequency: 20.000 Hz
*
* Freq(Hz)	SPL(dB)	Phase(degrees)
20.000000	103.535	20.7357
20.299999	103.535	20.0927
20.600000	103.531	19.4614
20.900000	103.524	18.8395
21.200001	103.517	18.2258
21.400000	103.512	17.8213
21.799999	103.507	17.0244
22.000000	103.506	16.6328
22.400000	103.507	15.8641
22.700001	103.509	15.3010
23.000000	103.511	14.7495
23.299999	103.514	14.2090
23.600000	103.517	13.6792
24.000000	103.520	12.9878
24.299999	103.522	12.4790
24.700001	103.522	11.8118
25.000000	103.518	11.3188
25.400000	103.512	10.6711
25.799999	103.503	10.0361
26.200001	103.493	9.4161
26.500000	103.485	8.9619
26.900000	103.472	8.3700
27.200001	103.461	7.9349
27.600000	103.444	7.3636
28.000000	103.427	6.7995
28.500000	103.408	6.1022
29.000000	103.390	5.4147
29.500000	103.373	4.7401
30.000000	103.356	4.0801
30.400000	103.343	3.5625
30.700001	103.334	3.1801
31.100000	103.323	2.6772
31.500000	103.311	2.1821
32.000000	103.295	1.5742
32.500000	103.275	0.9783
33.000000	103.254	0.3935
33.500000	103.234	-0.1821
34.000000	103.216	-0.7490
34.500000	103.199	-1.3055
35.000000	103.184	-1.8506
35.500000	103.170	-2.3861
36.000000	103.159	-2.9155
36.500000	103.148	-3.4393
37.000000	103.134	-3.9526
37.500000	103.114	-4.4487
38.200001	103.078	-5.1140
38.700001	103.047	-5.5776
39.500000	102.993	-6.3140
40.000000	102.958	-6.7664
40.599998	102.921	-7.2946
41.200001	102.890	-7.8102
41.799999	102.862	-8.3217
42.500000	102.833	-8.9149
43.099998	102.809	-9.4120
43.700001	102.786	-9.8947
44.400002	102.759	-10.4460
45.000000	102.733	-10.9157
45.500000	102.710	-11.3062
46.200001	102.675	-11.8451
46.799999	102.641	-12.2922
47.500000	102.598	-12.7924
48.200001	102.552	-13.2739
48.700001	102.517	-13.6101
49.400002	102.469	-14.0703
50.000000	102.431	-14.4531
50.799999	102.390	-14.9530
51.500000	102.360	-15.3948
52.200001	102.329	-15.8448
53.000000	102.288	-16.3528
53.799999	102.243	-16.8340
54.500000	102.203	-17.2286
55.200001	102.167	-17.6038
56.000000	102.129	-18.0236
57.000000	102.083	-18.5631
58.000000	102.035	-19.1246
59.000000	101.985	-19.6930
60.000000	101.934	-20.2581
60.799999	101.892	-20.6964
61.500000	101.854	-21.0620
62.200001	101.816	-21.4088
63.000000	101.774	-21.7830
64.000000	101.721	-22.2238
65.000000	101.666	-22.6541
66.000000	101.610	-23.0889
67.000000	101.557	-23.5319
68.000000	101.511	-23.9884
69.000000	101.472	-24.4550
70.000000	101.439	-24.9153
71.000000	101.412	-25.3707
72.000000	101.388	-25.8384
73.000000	101.359	-26.3237
74.000000	101.315	-26.7960
75.000000	101.253	-27.1801
76.199997	101.170	-27.5131
77.500000	101.087	-27.8721
78.800003	101.009	-28.3236
80.000000	100.942	-28.8108
81.199997	100.880	-29.3383
82.500000	100.815	-29.9222
83.800003	100.748	-30.4811
85.000000	100.680	-30.9498
86.199997	100.606	-31.3695
87.500000	100.519	-31.7839
88.500000	100.449	-32.0847
90.000000	100.343	-32.5110
91.199997	100.264	-32.8265
92.500000	100.187	-33.1418
93.800003	100.122	-33.4423
95.000000	100.069	-33.7256
96.199997	100.016	-34.0220
97.500000	99.954	-34.3487
98.800003	99.883	-34.6638
100.000000	99.814	-34.9381
101.500000	99.728	-35.2628
103.000000	99.651	-35.5701
104.400002	99.586	-35.8445
106.000000	99.515	-36.1510
107.500000	99.445	-36.4399
109.000000	99.370	-36.7417
110.599998	99.286	-37.0873
112.000000	99.213	-37.4018
113.800003	99.117	-37.7711
115.000000	99.049	-37.9552
117.199997	98.916	-38.1208
118.000000	98.869	-38.1465
120.599998	98.734	-38.3663
122.000000	98.668	-38.6287
124.099998	98.569	-39.0519
125.000000	98.529	-39.2050
126.500000	98.464	-39.4130
128.000000	98.399	-39.5864
131.500000	98.233	-40.0280
132.000000	98.208	-40.0972
134.000000	98.109	-40.3605
136.000000	98.011	-40.5817
138.000000	97.909	-40.7509
140.000000	97.809	-40.8572
143.000000	97.689	-40.8490
145.000000	97.636	-40.7975
147.500000	97.569	-40.8304
150.000000	97.485	-41.0644
152.500000	97.388	-41.4252
155.000000	97.300	-41.7115
157.500000	97.224	-41.8890
160.000000	97.148	-42.0547
162.500000	97.066	-42.2759
165.000000	96.975	-42.5331
167.500000	96.867	-42.7610
170.000000	96.741	-42.9284
172.500000	96.606	-43.0531
175.000000	96.472	-43.1567
177.500000	96.348	-43.2492
180.000000	96.240	-43.3398
182.500000	96.151	-43.4384
185.000000	96.080	-43.5441
187.500000	96.017	-43.6462
190.000000	95.955	-43.7388
192.500000	95.889	-43.8218
195.000000	95.816	-43.8950
197.500000	95.736	-43.9552
200.000000	95.652	-43.9962
203.000000	95.552	-44.0165
206.000000	95.455	-44.0234
209.000000	95.358	-44.0463
212.000000	95.255	-44.0902
214.000000	95.185	-44.1183
218.000000	95.044	-44.1270
220.000000	94.977	-44.1017
224.000000	94.851	-44.0156
227.000000	94.761	-43.9431
230.000000	94.675	-43.8817
233.000000	94.591	-43.8355
236.000000	94.507	-43.8007
240.000000	94.394	-43.7668
243.000000	94.307	-43.7432
247.000000	94.186	-43.6873
250.000000	94.096	-43.6075
254.000000	93.982	-43.4431
258.000000	93.881	-43.2542
262.000000	93.788	-43.1104
265.000000	93.717	-43.0366
269.000000	93.616	-42.9402
272.000000	93.539	-42.8455
276.000000	93.437	-42.6852
280.000000	93.341	-42.4999
285.000000	93.236	-42.2714
290.000000	93.143	-42.1165
295.000000	93.044	-42.0500
300.000000	92.936	-41.9836
304.000000	92.848	-41.8903
307.000000	92.784	-41.8015
311.000000	92.698	-41.6725
315.000000	92.608	-41.5380
320.000000	92.494	-41.3466
325.000000	92.382	-41.1100
330.000000	92.277	-40.8455
335.000000	92.175	-40.5826
340.000000	92.074	-40.3345
345.000000	91.973	-40.0931
350.000000	91.877	-39.8429
355.000000	91.785	-39.5789
360.000000	91.695	-39.3054
365.000000	91.602	-39.0273
370.000000	91.509	-38.7441
375.000000	91.417	-38.4525
382.000000	91.295	-38.0300
387.000000	91.212	-37.7204
395.000000	91.083	-37.2150
400.000000	91.003	-36.8962
406.000000	90.909	-36.5197
412.000000	90.815	-36.1527
418.000000	90.720	-35.7776
425.000000	90.615	-35.3051
431.000000	90.533	-34.8778
437.000000	90.456	-34.4565
444.000000	90.372	-33.9904
450.000000	90.303	-33.6274
455.000000	90.246	-33.3673
462.000000	90.159	-33.0527
468.000000	90.077	-32.7737
475.000000	89.978	-32.3948
482.000000	89.881	-31.9760
487.000000	89.810	-31.6662
494.000000	89.709	-31.2012
500.000000	89.623	-30.7595
508.000000	89.518	-30.1409
515.000000	89.431	-29.6026
522.000000	89.344	-29.0609
530.000000	89.246	-28.4132
538.000000	89.153	-27.7358
545.000000	89.078	-27.1355
552.000000	89.008	-26.5348
560.000000	88.933	-25.8600
570.000000	88.843	-25.0436
580.000000	88.752	-24.2303
590.000000	88.660	-23.4017
600.000000	88.569	-22.5464
608.000000	88.503	-21.8529
615.000000	88.449	-21.2482
622.000000	88.395	-20.6346
630.000000	88.333	-19.9033
640.000000	88.262	-18.9508
650.000000	88.201	-17.9830
660.000000	88.155	-17.0250
670.000000	88.121	-16.1350
680.000000	88.085	-15.3197
690.000000	88.041	-14.5198
700.000000	87.991	-13.6879
710.000000	87.942	-12.8131
720.000000	87.899	-11.9155
730.000000	87.861	-11.0074
740.000000	87.827	-10.0870
750.000000	87.795	-9.1525
762.000000	87.763	-8.0130
775.000000	87.736	-6.7626
788.000000	87.720	-5.5009
800.000000	87.715	-4.3143
812.000000	87.725	-3.1094
825.000000	87.754	-1.8469
838.000000	87.794	-0.6977
850.000000	87.830	0.2812
862.000000	87.862	1.2333
875.000000	87.896	2.2655
885.000000	87.927	3.0611
900.000000	87.981	4.2339
912.000000	88.029	5.1519
925.000000	88.090	6.1208
938.000000	88.158	7.0436
950.000000	88.224	7.8425
962.000000	88.293	8.5955
975.000000	88.369	9.3733
988.000000	88.446	10.1200
1000.000000	88.518	10.7900
1015.000000	88.611	11.6195
1030.000000	88.713	12.4228
1044.000000	88.818	13.0916
1060.000000	88.941	13.7073
1075.000000	89.049	14.1731
1090.000000	89.150	14.5873
1106.000000	89.253	14.9977
1120.000000	89.340	15.3383
1138.000000	89.444	15.7634
1150.000000	89.508	16.0453
1172.000000	89.620	16.5735
1180.000000	89.662	16.7710
1206.000000	89.813	17.3654
1220.000000	89.898	17.6007
1241.000000	90.015	17.8540
1250.000000	90.059	17.9484
1265.000000	90.126	18.1087
1280.000000	90.185	18.2822
1315.000000	90.312	18.7479
1320.000000	90.330	18.8176
1340.000000	90.400	19.0978
1360.000000	90.467	19.3969
1380.000000	90.531	19.7458
1400.000000	90.600	20.1662
1430.000000	90.735	20.8326
1450.000000	90.840	21.2051
1475.000000	90.979	21.5956
1500.000000	91.127	21.9510
1525.000000	91.287	22.3157
1550.000000	91.457	22.7265
1575.000000	91.627	23.1750
1600.000000	91.768	23.5717
1625.000000	91.836	23.8644
1650.000000	91.820	24.0988
1675.000000	91.748	24.3250
1700.000000	91.669	24.5560
1725.000000	91.624	24.7858
1750.000000	91.629	25.0348
1775.000000	91.683	25.3429
1800.000000	91.781	25.7024
1825.000000	91.907	26.0405
1850.000000	92.042	26.3130
1875.000000	92.178	26.5323
1900.000000	92.310	26.7325
1925.000000	92.440	26.9477
1950.000000	92.571	27.1880
1975.000000	92.708	27.4131
2000.000000	92.848	27.5701
2030.000000	93.009	27.6589
2060.000000	93.157	27.6769
2090.000000	93.290	27.6543
2120.000000	93.409	27.6125
2140.000000	93.480	27.5970
2180.000000	93.617	27.6459
2200.000000	93.689	27.6922
2240.000000	93.837	27.7570
2270.000000	93.944	27.7889
2300.000000	94.044	27.8601
2330.000000	94.144	28.0157
2360.000000	94.258	28.2414
2400.000000	94.440	28.5394
2430.000000	94.597	28.6845
2470.000000	94.824	28.6831
2500.000000	94.995	28.5001
2540.000000	95.203	28.0683
2580.000000	95.390	27.5343
2620.000000	95.559	26.9357
2650.000000	95.675	26.4557
2690.000000	95.816	25.8246
2720.000000	95.916	25.3859
2760.000000	96.052	24.8169
2800.000000	96.190	24.1921
2850.000000	96.356	23.2823
2900.000000	96.502	22.2615
2950.000000	96.621	21.2352
3000.000000	96.727	20.2352
3040.000000	96.808	19.4180
3070.000000	96.866	18.7979
3110.000000	96.942	17.9833
3150.000000	97.023	17.1752
3200.000000	97.129	16.1193
3250.000000	97.231	14.9814
3300.000000	97.316	13.7978
3350.000000	97.384	12.6503
3400.000000	97.442	11.5481
3450.000000	97.490	10.4468
3500.000000	97.527	9.3358
3550.000000	97.559	8.1835
3600.000000	97.589	6.9122
3650.000000	97.608	5.4694
3700.000000	97.603	3.8868
3750.000000	97.570	2.2625
3820.000000	97.484	0.0668
3870.000000	97.401	-1.3604
3950.000000	97.253	-3.3094
4000.000000	97.160	-4.3951
4060.000000	97.038	-5.6815
4120.000000	96.883	-6.9701
4180.000000	96.686	-8.2201
4250.000000	96.394	-9.5604
4310.000000	96.096	-10.5110
4370.000000	95.772	-11.2360
4440.000000	95.384	-11.8457
4500.000000	95.046	-12.2034
4550.000000	94.764	-12.3853
4620.000000	94.368	-12.4599
4680.000000	94.027	-12.3246
4750.000000	93.637	-11.8929
4820.000000	93.270	-11.2031
4870.000000	93.025	-10.5916
4940.000000	92.707	-9.5957
5000.000000	92.453	-8.6223
5080.000000	92.133	-7.1239
5150.000000	91.869	-5.5820
5220.000000	91.628	-3.8478
5300.000000	91.378	-1.7111
5380.000000	91.149	0.5187
5450.000000	90.954	2.5258
5520.000000	90.760	4.6194
5600.000000	90.548	7.1466
5700.000000	90.320	10.4568
5800.000000	90.149	13.8372
5900.000000	90.032	17.2556
6000.000000	89.969	20.7697
6080.000000	89.962	23.6464
6150.000000	89.991	26.1818
6220.000000	90.049	28.7098
6300.000000	90.150	31.5912
6400.000000	90.326	35.2123
6500.000000	90.565	38.8518
6600.000000	90.873	42.4518
6700.000000	91.250	45.9676
6800.000000	91.702	49.4002
6900.000000	92.241	52.7242
7000.000000	92.878	55.8535
7100.000000	93.619	58.6880
7200.000000	94.478	61.1384
7300.000000	95.476	63.0599
7400.000000	96.619	64.1929
7500.000000	97.883	64.1763
7620.000000	99.480	62.0034
7750.000000	101.123	55.9760
7880.000000	102.394	45.3162
8000.000000	103.009	32.0359
8120.000000	102.989	17.7715
8250.000000	102.317	4.3204
8380.000000	101.184	-5.1609
8500.000000	99.965	-10.3458
8620.000000	98.782	-12.9411
8750.000000	97.687	-13.9261
8850.000000	97.018	-13.9586
9000.000000	96.305	-13.5456
9120.000000	95.956	-13.3111
9250.000000	95.740	-13.5568
9380.000000	95.632	-14.5899
9500.000000	95.573	-16.4259
9620.000000	95.494	-19.1796
9750.000000	95.321	-23.0725
9880.000000	95.005	-27.5828
10000.000000	94.559	-31.8831
10150.000000	93.785	-36.7738
10300.000000	92.800	-40.4961
10440.000000	91.749	-42.6222
10600.000000	90.472	-43.4093
10750.000000	89.267	-42.7194
10900.000000	88.109	-40.9082
11060.000000	86.973	-37.9968
11200.000000	86.099	-34.8214
11380.000000	85.169	-30.1541
11500.000000	84.680	-26.8375
11720.000000	84.075	-20.8422
11800.000000	83.945	-18.8267
12060.000000	83.808	-13.4601
12200.000000	83.875	-11.5636
12410.000000	84.082	-10.3594
12500.000000	84.183	-10.5416
12650.000000	84.322	-11.8623
12800.000000	84.368	-14.4115
13150.000000	83.830	-23.4269
13200.000000	83.662	-24.7883
13400.000000	82.753	-29.5506
13600.000000	81.490	-32.3470
13800.000000	79.954	-32.4299
14000.000000	78.287	-29.5373
14300.000000	76.098	-20.5350
14500.000000	75.299	-13.5965
14750.000000	75.066	-7.4492
15000.000000	75.028	-4.9709
15250.000000	74.774	-4.1721
15500.000000	74.320	-3.8832
15750.000000	73.724	-4.6960
16000.000000	72.893	-6.7405
16250.000000	71.622	-6.6599
16500.000000	70.093	-0.4097
16750.000000	69.180	7.9659
17000.000000	69.085	12.5819
17250.000000	69.240	13.3683
17500.000000	69.385	11.9421
17750.000000	69.499	8.7063
18000.000000	69.552	3.0378
18250.000000	69.411	-5.6786
18500.000000	68.868	-16.8971
18750.000000	67.738	-28.3535
19000.000000	65.963	-37.0182
19250.000000	63.608	-40.8723
19500.000000	60.809	-39.6091
19750.000000	57.716	-34.0482
20000.000000	54.468	-25.4993
