* Measurement data measured by REW V5.20.13
* Source: EXCL: Mic in at front panel (Pink) (Realtek(R) Audio), MICROPHONE (Master Volume), L, volume: 0.250
* Format: 256k Log Swept Sine, 1 sweep at -12.0 dBFS with no timing reference
* Dated: Mar 11, 2023 12:19:12 AM
* REW Settings:
*  C-weighting compensation: Off
*  Target level: 75.0 dB
* Note: Kiwi Ears Orchestra Lite L
* Measurement: Kiwi Ears Orchestra Lite L
* Smoothing: 1/12 octave
* Frequency Step: 1/48 octave
* Start Frequency: 20.000 Hz
*
* Freq(Hz)	SPL(dB)	Phase(degrees)
20.000000	105.176	39.3700
20.299999	105.216	38.6606
20.600000	105.254	37.9630
20.900000	105.292	37.2777
21.200001	105.328	36.6053
21.400000	105.352	36.1641
21.799999	105.400	35.2987
22.000000	105.423	34.8745
22.400000	105.469	34.0430
22.700001	105.502	33.4346
23.000000	105.534	32.8396
23.299999	105.566	32.2587
23.600000	105.596	31.6919
24.000000	105.635	30.9579
24.299999	105.663	30.4232
24.700001	105.699	29.7300
25.000000	105.724	29.2242
25.400000	105.756	28.5675
25.799999	105.785	27.9280
26.200001	105.813	27.2999
26.500000	105.833	26.8328
26.900000	105.856	26.2139
27.200001	105.870	25.7554
27.600000	105.887	25.1588
28.000000	105.901	24.5862
28.500000	105.919	23.8980
29.000000	105.940	23.2094
29.500000	105.958	22.4953
30.000000	105.969	21.7767
30.400000	105.972	21.2381
30.700001	105.974	20.8714
31.100000	105.979	20.4302
31.500000	105.993	20.0165
32.000000	106.022	19.4777
32.500000	106.055	18.8736
33.000000	106.082	18.2240
33.500000	106.100	17.5814
34.000000	106.114	16.9808
34.500000	106.129	16.4165
35.000000	106.144	15.8672
35.500000	106.159	15.3218
36.000000	106.171	14.7838
36.500000	106.182	14.2571
37.000000	106.192	13.7399
37.500000	106.199	13.2289
38.200001	106.206	12.5269
38.700001	106.209	12.0387
39.500000	106.213	11.2753
40.000000	106.214	10.8042
40.599998	106.214	10.2457
41.200001	106.213	9.6995
41.799999	106.212	9.1652
42.500000	106.209	8.5517
43.099998	106.206	8.0371
43.700001	106.201	7.5438
44.400002	106.195	6.9999
45.000000	106.192	6.5508
45.500000	106.190	6.1795
46.200001	106.186	5.6607
46.799999	106.182	5.2211
47.500000	106.174	4.7189
48.200001	106.164	4.2295
48.700001	106.156	3.8883
49.400002	106.144	3.4226
50.000000	106.134	3.0327
50.799999	106.120	2.5211
51.500000	106.109	2.0790
52.200001	106.097	1.6440
53.000000	106.084	1.1590
53.799999	106.071	0.6876
54.500000	106.061	0.2865
55.200001	106.051	-0.1051
56.000000	106.041	-0.5467
57.000000	106.029	-1.1018
58.000000	106.014	-1.6648
59.000000	105.996	-2.2289
60.000000	105.975	-2.7860
60.799999	105.956	-3.2230
61.500000	105.938	-3.5971
62.200001	105.920	-3.9622
63.000000	105.898	-4.3684
64.000000	105.870	-4.8593
65.000000	105.843	-5.3315
66.000000	105.816	-5.7902
67.000000	105.789	-6.2441
68.000000	105.762	-6.6968
69.000000	105.732	-7.1355
70.000000	105.701	-7.5469
71.000000	105.671	-7.9358
72.000000	105.644	-8.3143
73.000000	105.616	-8.6906
74.000000	105.588	-9.0649
75.000000	105.559	-9.4353
76.199997	105.524	-9.8786
77.500000	105.488	-10.3641
78.800003	105.454	-10.8650
80.000000	105.422	-11.3480
81.199997	105.387	-11.8375
82.500000	105.344	-12.3462
83.800003	105.295	-12.8279
85.000000	105.245	-13.2512
86.199997	105.189	-13.6452
87.500000	105.127	-14.0345
88.500000	105.079	-14.3102
90.000000	105.010	-14.6900
91.199997	104.959	-14.9716
92.500000	104.904	-15.2643
93.800003	104.851	-15.5512
95.000000	104.802	-15.8189
96.199997	104.753	-16.0925
97.500000	104.701	-16.3844
98.800003	104.649	-16.6488
100.000000	104.600	-16.8518
101.500000	104.539	-17.0534
103.000000	104.478	-17.2467
104.400002	104.422	-17.4804
106.000000	104.357	-17.8363
107.500000	104.296	-18.2105
109.000000	104.237	-18.5312
110.599998	104.179	-18.7699
112.000000	104.127	-18.9511
113.800003	104.049	-19.2692
115.000000	103.989	-19.5794
117.199997	103.874	-20.3348
118.000000	103.831	-20.6121
120.599998	103.681	-20.9481
122.000000	103.618	-20.6590
124.099998	103.547	-20.0463
125.000000	103.514	-19.8302
126.500000	103.450	-19.5789
128.000000	103.380	-19.4352
131.500000	103.260	-19.1186
132.000000	103.250	-19.0499
134.000000	103.220	-18.7330
136.000000	103.203	-18.4292
138.000000	103.202	-18.2353
140.000000	103.224	-18.2300
143.000000	103.262	-18.5816
145.000000	103.260	-18.9834
147.500000	103.221	-19.4766
150.000000	103.167	-19.7921
152.500000	103.108	-19.9667
155.000000	103.037	-20.1696
157.500000	102.957	-20.5511
160.000000	102.870	-21.0048
162.500000	102.773	-21.3456
165.000000	102.662	-21.5261
167.500000	102.548	-21.6111
170.000000	102.448	-21.6351
172.500000	102.363	-21.6074
175.000000	102.285	-21.5522
177.500000	102.209	-21.4937
180.000000	102.134	-21.4345
182.500000	102.064	-21.3717
185.000000	101.996	-21.3113
187.500000	101.928	-21.2498
190.000000	101.860	-21.1697
192.500000	101.791	-21.0581
195.000000	101.719	-20.9182
197.500000	101.648	-20.7614
200.000000	101.580	-20.5919
203.000000	101.506	-20.3694
206.000000	101.439	-20.1383
209.000000	101.375	-19.9278
212.000000	101.308	-19.7415
214.000000	101.261	-19.6119
218.000000	101.167	-19.2793
220.000000	101.124	-19.0765
224.000000	101.050	-18.6675
227.000000	101.000	-18.3867
230.000000	100.952	-18.1190
233.000000	100.905	-17.8542
236.000000	100.859	-17.5930
240.000000	100.799	-17.2579
243.000000	100.753	-17.0105
247.000000	100.689	-16.6562
250.000000	100.641	-16.3515
254.000000	100.583	-15.8869
258.000000	100.539	-15.4019
262.000000	100.505	-14.9697
265.000000	100.480	-14.6853
269.000000	100.441	-14.3135
272.000000	100.412	-14.0143
276.000000	100.377	-13.5826
280.000000	100.350	-13.1304
285.000000	100.331	-12.5775
290.000000	100.324	-12.1104
295.000000	100.316	-11.7539
300.000000	100.297	-11.4301
304.000000	100.280	-11.1561
307.000000	100.268	-10.9445
311.000000	100.253	-10.6656
315.000000	100.238	-10.3948
320.000000	100.217	-10.0504
325.000000	100.198	-9.6775
330.000000	100.185	-9.2851
335.000000	100.177	-8.9052
340.000000	100.172	-8.5634
345.000000	100.166	-8.2551
350.000000	100.159	-7.9587
355.000000	100.152	-7.6641
360.000000	100.146	-7.3733
365.000000	100.140	-7.0879
370.000000	100.134	-6.8057
375.000000	100.129	-6.5248
382.000000	100.123	-6.1362
387.000000	100.119	-5.8632
395.000000	100.115	-5.4304
400.000000	100.115	-5.1637
406.000000	100.116	-4.8563
412.000000	100.116	-4.5653
418.000000	100.115	-4.2738
425.000000	100.115	-3.9098
431.000000	100.120	-3.5852
437.000000	100.130	-3.2754
444.000000	100.148	-2.9505
450.000000	100.167	-2.7179
455.000000	100.182	-2.5722
462.000000	100.195	-2.4268
468.000000	100.196	-2.3016
475.000000	100.192	-2.1133
482.000000	100.188	-1.8987
487.000000	100.185	-1.7441
494.000000	100.179	-1.5115
500.000000	100.174	-1.2842
508.000000	100.173	-0.9745
515.000000	100.174	-0.7269
522.000000	100.174	-0.4902
530.000000	100.171	-0.2021
538.000000	100.170	0.1056
545.000000	100.172	0.3744
552.000000	100.175	0.6397
560.000000	100.181	0.9301
570.000000	100.188	1.2662
580.000000	100.191	1.5993
590.000000	100.192	1.9495
600.000000	100.193	2.3279
608.000000	100.196	2.6386
615.000000	100.199	2.9064
622.000000	100.201	3.1807
630.000000	100.203	3.5226
640.000000	100.213	3.9853
650.000000	100.231	4.4575
660.000000	100.260	4.9110
670.000000	100.296	5.2875
680.000000	100.328	5.5838
690.000000	100.350	5.8620
700.000000	100.366	6.1702
710.000000	100.382	6.5170
720.000000	100.400	6.8815
730.000000	100.419	7.2521
740.000000	100.440	7.6316
750.000000	100.462	8.0231
762.000000	100.492	8.5094
775.000000	100.529	9.0512
788.000000	100.571	9.6027
800.000000	100.616	10.1307
812.000000	100.671	10.6733
825.000000	100.746	11.2150
838.000000	100.826	11.6462
850.000000	100.894	11.9733
862.000000	100.956	12.2908
875.000000	101.020	12.6564
885.000000	101.071	12.9528
900.000000	101.150	13.3987
912.000000	101.218	13.7548
925.000000	101.295	14.1356
938.000000	101.379	14.4911
950.000000	101.459	14.7844
962.000000	101.539	15.0501
975.000000	101.625	15.3204
988.000000	101.711	15.5800
1000.000000	101.792	15.8174
1015.000000	101.897	16.1260
1030.000000	102.014	16.4260
1044.000000	102.134	16.6366
1060.000000	102.274	16.7399
1075.000000	102.397	16.7362
1090.000000	102.512	16.6916
1106.000000	102.627	16.6218
1120.000000	102.723	16.5470
1138.000000	102.841	16.4422
1150.000000	102.917	16.3721
1172.000000	103.054	16.2544
1180.000000	103.105	16.2161
1206.000000	103.282	16.0401
1220.000000	103.379	15.8590
1241.000000	103.510	15.4899
1250.000000	103.560	15.3195
1265.000000	103.638	15.0417
1280.000000	103.709	14.7805
1315.000000	103.866	14.2397
1320.000000	103.887	14.1659
1340.000000	103.971	13.8723
1360.000000	104.049	13.5980
1380.000000	104.123	13.3757
1400.000000	104.200	13.2259
1430.000000	104.339	13.0305
1450.000000	104.440	12.8229
1475.000000	104.561	12.4899
1500.000000	104.676	12.1331
1525.000000	104.785	11.7931
1550.000000	104.895	11.4969
1575.000000	105.015	11.2303
1600.000000	105.150	10.9008
1625.000000	105.286	10.4560
1650.000000	105.414	9.9409
1675.000000	105.535	9.4041
1700.000000	105.653	8.8555
1725.000000	105.768	8.2854
1750.000000	105.877	7.7119
1775.000000	105.985	7.1731
1800.000000	106.101	6.6595
1825.000000	106.228	6.0975
1850.000000	106.358	5.4432
1875.000000	106.484	4.7096
1900.000000	106.604	3.9301
1925.000000	106.719	3.1371
1950.000000	106.835	2.3379
1975.000000	106.958	1.4915
2000.000000	107.082	0.5464
2030.000000	107.221	-0.7246
2060.000000	107.345	-2.1028
2090.000000	107.451	-3.5532
2120.000000	107.538	-5.0498
2140.000000	107.585	-6.0479
2180.000000	107.661	-7.9890
2200.000000	107.695	-8.9468
2240.000000	107.753	-10.9004
2270.000000	107.780	-12.3850
2300.000000	107.791	-13.8277
2330.000000	107.793	-15.1802
2360.000000	107.798	-16.4542
2400.000000	107.817	-18.1363
2430.000000	107.838	-19.4520
2470.000000	107.866	-21.3455
2500.000000	107.877	-22.8891
2540.000000	107.862	-25.0445
2580.000000	107.813	-27.1964
2620.000000	107.739	-29.3042
2650.000000	107.666	-30.8432
2690.000000	107.547	-32.7905
2720.000000	107.448	-34.1455
2760.000000	107.315	-35.8412
2800.000000	107.183	-37.4845
2850.000000	107.009	-39.5214
2900.000000	106.815	-41.5196
2950.000000	106.596	-43.3841
3000.000000	106.363	-45.0818
3040.000000	106.169	-46.3416
3070.000000	106.017	-47.2146
3110.000000	105.808	-48.2478
3150.000000	105.600	-49.1329
3200.000000	105.352	-50.0938
3250.000000	105.113	-50.9537
3300.000000	104.879	-51.7152
3350.000000	104.648	-52.3283
3400.000000	104.430	-52.7955
3450.000000	104.228	-53.1520
3500.000000	104.043	-53.3901
3550.000000	103.884	-53.5241
3600.000000	103.756	-53.6245
3650.000000	103.656	-53.7540
3700.000000	103.576	-53.9180
3750.000000	103.516	-54.0816
3820.000000	103.474	-54.3045
3870.000000	103.482	-54.4672
3950.000000	103.595	-54.8141
4000.000000	103.743	-55.2712
4060.000000	103.987	-56.3205
4120.000000	104.276	-58.0737
4180.000000	104.581	-60.6162
4250.000000	104.915	-64.6304
4310.000000	105.152	-68.9160
4370.000000	105.326	-73.9106
4440.000000	105.427	-80.5446
4500.000000	105.404	-86.7673
4550.000000	105.302	-92.1772
4620.000000	105.038	-99.8645
4680.000000	104.711	-106.3642
4750.000000	104.248	-113.6854
4820.000000	103.739	-120.7491
4870.000000	103.369	-125.7159
4940.000000	102.861	-132.6799
5000.000000	102.446	-138.7633
5080.000000	101.932	-147.1612
5150.000000	101.534	-154.8581
5220.000000	101.198	-162.9953
5300.000000	100.890	-172.9668
5380.000000	100.647	176.3117
5450.000000	100.461	166.4155
5520.000000	100.279	156.2528
5600.000000	100.063	144.6201
5700.000000	99.773	130.5164
5800.000000	99.459	117.3835
5900.000000	99.126	105.6380
6000.000000	98.797	95.5622
6080.000000	98.559	88.7246
6150.000000	98.380	83.5642
6220.000000	98.231	79.0894
6300.000000	98.094	74.7300
6400.000000	97.971	70.2901
6500.000000	97.900	66.7955
6600.000000	97.875	64.0679
6700.000000	97.891	62.0478
6800.000000	97.970	60.7409
6900.000000	98.158	59.8858
7000.000000	98.448	58.9775
7100.000000	98.781	57.7170
7200.000000	99.111	56.1296
7300.000000	99.427	54.3687
7400.000000	99.738	52.4642
7500.000000	100.041	50.3523
7620.000000	100.378	47.4950
7750.000000	100.694	43.9797
7880.000000	100.935	39.9860
8000.000000	101.060	35.9322
8120.000000	101.072	31.6697
8250.000000	100.939	26.9888
8380.000000	100.628	22.5512
8500.000000	100.173	19.0978
8620.000000	99.565	16.7004
8750.000000	98.749	15.9196
8850.000000	98.047	17.1649
9000.000000	97.110	22.7434
9120.000000	96.843	29.8134
9250.000000	97.338	37.7597
9380.000000	98.412	43.3073
9500.000000	99.524	45.1158
9620.000000	100.520	43.9225
9750.000000	101.381	40.1945
9880.000000	102.020	34.9404
10000.000000	102.436	29.2367
10150.000000	102.722	21.2387
10300.000000	102.713	12.6096
10440.000000	102.395	4.6301
10600.000000	101.641	-3.1066
10750.000000	100.601	-7.6654
10900.000000	99.383	-8.8564
11060.000000	98.168	-6.8611
11200.000000	97.424	-3.6965
11380.000000	97.029	0.0646
11500.000000	97.018	1.5408
11720.000000	97.157	1.5835
11800.000000	97.189	0.8721
12060.000000	97.066	-2.9433
12200.000000	96.838	-5.3185
12410.000000	96.310	-8.4850
12500.000000	96.031	-9.5720
12650.000000	95.518	-10.9395
12800.000000	94.972	-11.7365
13150.000000	93.705	-11.6818
13200.000000	93.536	-11.5005
13400.000000	92.904	-10.4919
13600.000000	92.356	-9.1979
13800.000000	91.899	-7.8358
14000.000000	91.523	-6.5932
14300.000000	91.082	-5.2921
14500.000000	90.835	-4.9579
14750.000000	90.528	-5.2089
15000.000000	90.172	-6.0903
15250.000000	89.721	-7.2962
15500.000000	89.157	-8.3849
15750.000000	88.496	-8.9175
16000.000000	87.784	-8.5966
16250.000000	87.090	-7.3445
16500.000000	86.494	-5.3380
16750.000000	86.071	-3.0046
17000.000000	85.851	-0.9496
17250.000000	85.807	0.2181
17500.000000	85.858	0.0678
17750.000000	85.902	-1.5223
18000.000000	85.840	-4.2203
18250.000000	85.625	-7.0826
18500.000000	85.367	-8.8625
18750.000000	85.393	-9.6082
19000.000000	85.849	-12.2416
19250.000000	86.284	-19.8774
19500.000000	86.195	-31.5297
19750.000000	85.442	-43.4590
20000.000000	84.120	-52.7955
