* Measurement data measured by REW V5.20.4
* Source: Mic in at front panel (Pink) (Realtek(R) Audio), MICROPHONE (Master Volume), L, volume: 0.250
* Format: 256k Log Swept Sine, 1 sweep at -12.0 dBFS with no timing reference
* Dated: Feb 9, 2022 12:26:50 PM
* REW Settings:
*  C-weighting compensation: Off
*  Target level: 75.0 dB
* Note: KZ DQ6S R
* Measurement: KZ DQ6S R
* Smoothing: 1/12 octave
* Frequency Step: 1/48 octave
* Start Frequency: 20.000 Hz
*
* Freq(Hz)	SPL(dB)	Phase(degrees)
20.000000	107.019	21.6578
20.299999	107.017	20.9620
20.600000	107.015	20.2820
20.900000	107.013	19.6169
21.200001	107.011	18.9655
21.400000	107.010	18.5381
21.799999	107.007	17.6992
22.000000	107.005	17.2870
22.400000	107.002	16.4769
22.700001	106.999	15.8813
23.000000	106.994	15.2958
23.299999	106.989	14.7197
23.600000	106.983	14.1533
24.000000	106.973	13.4134
24.299999	106.964	12.8702
24.700001	106.951	12.1621
25.000000	106.941	11.6427
25.400000	106.926	10.9651
25.799999	106.911	10.3023
26.200001	106.896	9.6530
26.500000	106.884	9.1744
26.900000	106.867	8.5477
27.200001	106.854	8.0865
27.600000	106.836	7.4836
28.000000	106.818	6.8940
28.500000	106.794	6.1748
29.000000	106.770	5.4735
29.500000	106.746	4.7886
30.000000	106.722	4.1187
30.400000	106.702	3.5927
30.700001	106.688	3.2037
31.100000	106.668	2.6924
31.500000	106.648	2.1893
32.000000	106.623	1.5718
32.500000	106.598	0.9664
33.000000	106.572	0.3718
33.500000	106.545	-0.2126
34.000000	106.518	-0.7868
34.500000	106.490	-1.3498
35.000000	106.461	-1.9005
35.500000	106.431	-2.4387
36.000000	106.401	-2.9641
36.500000	106.370	-3.4773
37.000000	106.339	-3.9785
37.500000	106.307	-4.4676
38.200001	106.262	-5.1315
38.700001	106.230	-5.5914
39.500000	106.178	-6.3067
40.000000	106.146	-6.7437
40.599998	106.108	-7.2588
41.200001	106.069	-7.7631
41.799999	106.030	-8.2568
42.500000	105.984	-8.8210
43.099998	105.944	-9.2941
43.700001	105.903	-9.7549
44.400002	105.855	-10.2754
45.000000	105.814	-10.7077
45.500000	105.779	-11.0605
46.200001	105.731	-11.5453
46.799999	105.690	-11.9528
47.500000	105.641	-12.4165
48.200001	105.592	-12.8654
48.700001	105.557	-13.1771
49.400002	105.508	-13.6025
50.000000	105.467	-13.9585
50.799999	105.412	-14.4206
51.500000	105.364	-14.8123
52.200001	105.316	-15.1911
53.000000	105.263	-15.6068
53.799999	105.211	-16.0049
54.500000	105.167	-16.3420
55.200001	105.125	-16.6727
56.000000	105.078	-17.0479
57.000000	105.020	-17.5197
58.000000	104.959	-17.9962
59.000000	104.896	-18.4691
60.000000	104.831	-18.9313
60.799999	104.778	-19.2922
61.500000	104.731	-19.5972
62.200001	104.685	-19.8902
63.000000	104.634	-20.2184
64.000000	104.572	-20.6311
65.000000	104.506	-21.0311
66.000000	104.437	-21.3856
67.000000	104.370	-21.6915
68.000000	104.306	-21.9842
69.000000	104.242	-22.2889
70.000000	104.177	-22.6022
71.000000	104.110	-22.9149
72.000000	104.043	-23.2181
73.000000	103.977	-23.5062
74.000000	103.915	-23.7788
75.000000	103.855	-24.0353
76.199997	103.787	-24.3247
77.500000	103.717	-24.6299
78.800003	103.648	-24.9486
80.000000	103.583	-25.2617
81.199997	103.515	-25.5916
82.500000	103.438	-25.9684
83.800003	103.356	-26.3477
85.000000	103.277	-26.6715
86.199997	103.196	-26.9526
87.500000	103.109	-27.2064
88.500000	103.044	-27.3719
90.000000	102.951	-27.5892
91.199997	102.879	-27.7489
92.500000	102.803	-27.9155
93.800003	102.729	-28.0785
95.000000	102.662	-28.2259
96.199997	102.595	-28.3682
97.500000	102.523	-28.5139
98.800003	102.451	-28.6474
100.000000	102.385	-28.7577
101.500000	102.304	-28.8772
103.000000	102.225	-28.9811
104.400002	102.155	-29.0740
106.000000	102.077	-29.1844
107.500000	102.005	-29.2928
109.000000	101.934	-29.4086
110.599998	101.859	-29.5472
112.000000	101.792	-29.6814
113.800003	101.698	-29.8542
115.000000	101.630	-29.9538
117.199997	101.503	-30.0742
118.000000	101.457	-30.0938
120.599998	101.321	-30.0718
122.000000	101.258	-30.0252
124.099998	101.173	-29.9558
125.000000	101.137	-29.9347
126.500000	101.075	-29.9109
128.000000	101.011	-29.8937
131.500000	100.863	-29.8640
132.000000	100.843	-29.8601
134.000000	100.765	-29.8408
136.000000	100.690	-29.8107
138.000000	100.616	-29.7661
140.000000	100.545	-29.7175
143.000000	100.442	-29.6556
145.000000	100.374	-29.6067
147.500000	100.285	-29.5425
150.000000	100.190	-29.4720
152.500000	100.091	-29.3727
155.000000	99.998	-29.2308
157.500000	99.914	-29.0747
160.000000	99.839	-28.9526
162.500000	99.763	-28.8771
165.000000	99.683	-28.8239
167.500000	99.598	-28.7612
170.000000	99.510	-28.6641
172.500000	99.424	-28.5272
175.000000	99.344	-28.3658
177.500000	99.269	-28.2006
180.000000	99.197	-28.0421
182.500000	99.126	-27.8913
185.000000	99.057	-27.7450
187.500000	98.988	-27.6019
190.000000	98.920	-27.4610
192.500000	98.853	-27.3168
195.000000	98.787	-27.1617
197.500000	98.722	-26.9916
200.000000	98.657	-26.8030
203.000000	98.583	-26.5555
206.000000	98.515	-26.3073
209.000000	98.451	-26.0811
212.000000	98.384	-25.8718
214.000000	98.336	-25.7271
218.000000	98.237	-25.3870
220.000000	98.189	-25.1902
224.000000	98.102	-24.7843
227.000000	98.042	-24.4962
230.000000	97.985	-24.2247
233.000000	97.927	-23.9631
236.000000	97.871	-23.7098
240.000000	97.797	-23.3867
243.000000	97.740	-23.1487
247.000000	97.661	-22.8117
250.000000	97.601	-22.5266
254.000000	97.527	-22.0970
258.000000	97.465	-21.6525
262.000000	97.412	-21.2598
265.000000	97.372	-21.0022
269.000000	97.315	-20.6631
272.000000	97.271	-20.3883
276.000000	97.216	-19.9913
280.000000	97.167	-19.5752
285.000000	97.119	-19.0690
290.000000	97.080	-18.6467
295.000000	97.035	-18.3196
300.000000	96.978	-17.9996
304.000000	96.929	-17.7103
307.000000	96.892	-17.4781
311.000000	96.843	-17.1621
315.000000	96.795	-16.8458
320.000000	96.733	-16.4348
325.000000	96.673	-15.9876
330.000000	96.619	-15.5193
335.000000	96.570	-15.0577
340.000000	96.523	-14.6176
345.000000	96.476	-14.1910
350.000000	96.427	-13.7616
355.000000	96.380	-13.3240
360.000000	96.334	-12.8822
365.000000	96.290	-12.4391
370.000000	96.248	-11.9951
375.000000	96.207	-11.5492
382.000000	96.153	-10.9230
387.000000	96.117	-10.4758
395.000000	96.062	-9.7609
400.000000	96.030	-9.3157
406.000000	95.994	-8.7910
412.000000	95.959	-8.2789
418.000000	95.923	-7.7626
425.000000	95.883	-7.1313
431.000000	95.855	-6.5735
437.000000	95.833	-6.0258
444.000000	95.814	-5.4161
450.000000	95.802	-4.9337
455.000000	95.793	-4.5765
462.000000	95.773	-4.1310
468.000000	95.747	-3.7462
475.000000	95.712	-3.2542
482.000000	95.680	-2.7355
487.000000	95.657	-2.3630
494.000000	95.623	-1.8237
500.000000	95.597	-1.3320
508.000000	95.568	-0.6672
515.000000	95.547	-0.1072
522.000000	95.525	0.4426
530.000000	95.499	1.0883
538.000000	95.477	1.7537
545.000000	95.461	2.3364
552.000000	95.449	2.9160
560.000000	95.439	3.5646
570.000000	95.427	4.3463
580.000000	95.414	5.1224
590.000000	95.400	5.9115
600.000000	95.389	6.7239
608.000000	95.385	7.3791
615.000000	95.382	7.9466
622.000000	95.379	8.5192
630.000000	95.377	9.1987
640.000000	95.382	10.0772
650.000000	95.397	10.9578
660.000000	95.424	11.8135
670.000000	95.459	12.5878
680.000000	95.491	13.2773
690.000000	95.513	13.9418
700.000000	95.530	14.6277
710.000000	95.548	15.3447
720.000000	95.569	16.0731
730.000000	95.592	16.8024
740.000000	95.617	17.5356
750.000000	95.644	18.2758
762.000000	95.680	19.1727
775.000000	95.724	20.1489
788.000000	95.772	21.1247
800.000000	95.822	22.0383
812.000000	95.881	22.9658
825.000000	95.959	23.9332
838.000000	96.043	24.8120
850.000000	96.118	25.5803
862.000000	96.192	26.3572
875.000000	96.281	27.2029
885.000000	96.357	27.8233
900.000000	96.475	28.6593
912.000000	96.568	29.2675
925.000000	96.667	29.8996
938.000000	96.767	30.5067
950.000000	96.861	31.0389
962.000000	96.954	31.5485
975.000000	97.057	32.0846
988.000000	97.160	32.6069
1000.000000	97.256	33.0798
1015.000000	97.381	33.6704
1030.000000	97.514	34.2402
1044.000000	97.647	34.7020
1060.000000	97.798	35.1150
1075.000000	97.931	35.4412
1090.000000	98.061	35.7548
1106.000000	98.201	36.0647
1120.000000	98.323	36.2992
1138.000000	98.477	36.5536
1150.000000	98.577	36.7023
1172.000000	98.759	36.9526
1180.000000	98.825	37.0402
1206.000000	99.053	37.2593
1220.000000	99.178	37.2888
1241.000000	99.354	37.2323
1250.000000	99.424	37.1911
1265.000000	99.536	37.1167
1280.000000	99.643	37.0407
1315.000000	99.883	36.8625
1320.000000	99.917	36.8334
1340.000000	100.051	36.7022
1360.000000	100.183	36.5651
1380.000000	100.316	36.4563
1400.000000	100.456	36.3983
1430.000000	100.689	36.3045
1450.000000	100.849	36.1417
1475.000000	101.037	35.8394
1500.000000	101.205	35.4879
1525.000000	101.347	35.1346
1550.000000	101.467	34.8099
1575.000000	101.579	34.4975
1600.000000	101.693	34.1042
1625.000000	101.801	33.5788
1650.000000	101.895	32.9692
1675.000000	101.975	32.3289
1700.000000	102.047	31.6748
1725.000000	102.106	31.0040
1750.000000	102.151	30.3390
1775.000000	102.183	29.7224
1800.000000	102.215	29.1500
1825.000000	102.251	28.5541
1850.000000	102.285	27.8960
1875.000000	102.311	27.1927
1900.000000	102.331	26.4816
1925.000000	102.352	25.7994
1950.000000	102.381	25.1590
1975.000000	102.420	24.5239
2000.000000	102.463	23.8459
2030.000000	102.505	22.9720
2060.000000	102.530	22.0759
2090.000000	102.537	21.1924
2120.000000	102.524	20.3463
2140.000000	102.504	19.8268
2180.000000	102.447	18.9446
2200.000000	102.415	18.5629
2240.000000	102.349	17.8400
2270.000000	102.290	17.3293
2300.000000	102.222	16.8840
2330.000000	102.150	16.5353
2360.000000	102.083	16.2620
2400.000000	101.999	15.9268
2430.000000	101.935	15.6744
2470.000000	101.841	15.3580
2500.000000	101.761	15.1577
2540.000000	101.643	14.9995
2580.000000	101.524	15.0039
2620.000000	101.412	15.1139
2650.000000	101.332	15.2365
2690.000000	101.225	15.4752
2720.000000	101.147	15.7322
2760.000000	101.057	16.1511
2800.000000	100.982	16.5883
2850.000000	100.898	17.1111
2900.000000	100.812	17.6305
2950.000000	100.721	18.2422
3000.000000	100.637	18.9744
3040.000000	100.577	19.6144
3070.000000	100.535	20.1329
3110.000000	100.484	20.9030
3150.000000	100.447	21.7571
3200.000000	100.426	22.8797
3250.000000	100.429	24.0010
3300.000000	100.451	25.0992
3350.000000	100.492	26.1865
3400.000000	100.555	27.2247
3450.000000	100.633	28.1736
3500.000000	100.719	29.0754
3550.000000	100.817	29.9674
3600.000000	100.930	30.8214
3650.000000	101.054	31.5958
3700.000000	101.182	32.2908
3750.000000	101.311	32.9415
3820.000000	101.498	33.7890
3870.000000	101.632	34.3598
3950.000000	101.862	35.2589
4000.000000	102.026	35.7555
4060.000000	102.241	36.1915
4120.000000	102.465	36.4292
4180.000000	102.693	36.4783
4250.000000	102.955	36.3051
4310.000000	103.173	36.0019
4370.000000	103.392	35.5544
4440.000000	103.648	34.7615
4500.000000	103.855	33.7985
4550.000000	104.014	32.7996
4620.000000	104.201	31.1278
4680.000000	104.321	29.5061
4750.000000	104.417	27.4875
4820.000000	104.469	25.3585
4870.000000	104.478	23.7704
4940.000000	104.443	21.4865
5000.000000	104.365	19.5189
5080.000000	104.185	17.0076
5150.000000	103.961	15.0499
5220.000000	103.686	13.3812
5300.000000	103.317	11.8516
5380.000000	102.892	10.7725
5450.000000	102.466	10.3005
5520.000000	101.987	10.4927
5600.000000	101.400	11.9620
5700.000000	100.794	16.2366
5800.000000	100.718	21.6952
5900.000000	101.036	24.5737
6000.000000	101.201	24.8408
6080.000000	101.162	24.8862
6150.000000	101.072	25.3452
6220.000000	100.979	26.2019
6300.000000	100.897	27.5517
6400.000000	100.851	29.6327
6500.000000	100.886	31.9899
6600.000000	101.010	34.4628
6700.000000	101.225	36.9344
6800.000000	101.532	39.3461
6900.000000	101.941	41.6190
7000.000000	102.455	43.6144
7100.000000	103.076	45.1763
7200.000000	103.808	46.1522
7300.000000	104.647	46.3289
7400.000000	105.570	45.3973
7500.000000	106.524	43.0179
7620.000000	107.615	37.8733
7750.000000	108.587	29.2382
7880.000000	109.173	17.7289
8000.000000	109.259	5.6697
8120.000000	108.878	-6.1122
8250.000000	107.999	-16.8174
8380.000000	106.775	-24.3545
8500.000000	105.496	-28.4359
8620.000000	104.224	-30.2848
8750.000000	102.979	-30.6147
8850.000000	102.153	-30.1706
9000.000000	101.132	-28.9290
9120.000000	100.483	-27.7398
9250.000000	99.914	-26.4490
9380.000000	99.462	-25.2557
9500.000000	99.136	-24.3256
9620.000000	98.892	-23.6556
9750.000000	98.715	-23.3823
9880.000000	98.608	-23.8342
10000.000000	98.524	-25.0737
10150.000000	98.353	-27.6702
10300.000000	98.041	-31.0355
10440.000000	97.589	-34.3820
10600.000000	96.877	-37.8331
10750.000000	96.051	-40.2515
10900.000000	95.115	-41.6463
11060.000000	94.047	-41.9317
11200.000000	93.100	-41.2347
11380.000000	91.914	-39.2372
11500.000000	91.165	-37.3298
11720.000000	89.911	-32.9280
11800.000000	89.498	-31.0993
12060.000000	88.326	-24.5690
12200.000000	87.806	-20.8034
12410.000000	87.167	-14.9805
12500.000000	86.945	-12.4600
12650.000000	86.643	-8.2679
12800.000000	86.423	-4.1262
13150.000000	86.221	5.0903
13200.000000	86.227	6.3365
13400.000000	86.340	11.0912
13600.000000	86.605	15.4197
13800.000000	87.043	19.1962
14000.000000	87.694	22.1643
14300.000000	89.087	23.7712
14500.000000	90.154	21.3942
14750.000000	91.233	12.6823
15000.000000	91.516	-1.3746
15250.000000	90.732	-14.8392
15500.000000	89.218	-22.6969
15750.000000	87.675	-27.3516
16000.000000	86.150	-31.3369
16250.000000	84.261	-31.3472
16500.000000	82.097	-24.0430
16750.000000	80.423	-9.5209
17000.000000	80.536	7.5237
17250.000000	82.289	20.1577
17500.000000	84.370	24.4678
17750.000000	86.134	20.8042
18000.000000	87.448	11.4822
18250.000000	88.328	-1.3637
18500.000000	88.801	-16.4929
18750.000000	88.865	-33.2045
19000.000000	88.502	-50.7935
19250.000000	87.704	-68.2666
19500.000000	86.515	-84.2000
19750.000000	85.126	-96.7142
