* Measurement data measured by REW V5.20.4
* Source: Mic in at front panel (Pink) (Realtek(R) Audio), MICROPHONE (Master Volume), L, volume: 0.250
* Format: 256k Log Swept Sine, 1 sweep at -12.0 dBFS with no timing reference
* Dated: Jan 25, 2022 3:31:21 PM
* REW Settings:
*  C-weighting compensation: Off
*  Target level: 75.0 dB
* Note: DQ6S R Jan 25
* Measurement: DQ6S R Jan 25
* Smoothing: 1/12 octave
* Frequency Step: 1/48 octave
* Start Frequency: 20.000 Hz
*
* Freq(Hz)	SPL(dB)	Phase(degrees)
20.000000	106.805	21.0217
20.299999	106.804	20.3389
20.600000	106.803	19.6689
20.900000	106.802	19.0106
21.200001	106.801	18.3625
21.400000	106.801	17.9348
21.799999	106.801	17.0886
22.000000	106.801	16.6699
22.400000	106.800	15.8424
22.700001	106.797	15.2325
23.000000	106.793	14.6342
23.299999	106.787	14.0480
23.600000	106.781	13.4739
24.000000	106.770	12.7256
24.299999	106.761	12.1764
24.700001	106.746	11.4593
25.000000	106.735	10.9335
25.400000	106.718	10.2489
25.799999	106.701	9.5829
26.200001	106.683	8.9339
26.500000	106.669	8.4565
26.900000	106.651	7.8311
27.200001	106.636	7.3698
27.600000	106.617	6.7655
28.000000	106.597	6.1741
28.500000	106.571	5.4523
29.000000	106.545	4.7472
29.500000	106.519	4.0559
30.000000	106.493	3.3783
30.400000	106.472	2.8470
30.700001	106.456	2.4557
31.100000	106.435	1.9429
31.500000	106.414	1.4396
32.000000	106.388	0.8217
32.500000	106.361	0.2145
33.000000	106.334	-0.3824
33.500000	106.306	-0.9692
34.000000	106.278	-1.5461
34.500000	106.248	-2.1130
35.000000	106.218	-2.6682
35.500000	106.187	-3.2098
36.000000	106.155	-3.7373
36.500000	106.123	-4.2520
37.000000	106.091	-4.7561
37.500000	106.058	-5.2505
38.200001	106.011	-5.9235
38.700001	105.977	-6.3878
39.500000	105.922	-7.1028
40.000000	105.888	-7.5352
40.599998	105.847	-8.0408
41.200001	105.806	-8.5310
41.799999	105.765	-9.0070
42.500000	105.719	-9.5511
43.099998	105.678	-10.0148
43.700001	105.637	-10.4774
44.400002	105.588	-11.0108
45.000000	105.543	-11.4565
45.500000	105.506	-11.8170
46.200001	105.453	-12.3050
46.799999	105.408	-12.7106
47.500000	105.357	-13.1711
48.200001	105.306	-13.6187
48.700001	105.270	-13.9308
49.400002	105.221	-14.3578
50.000000	105.179	-14.7149
50.799999	105.123	-15.1770
51.500000	105.075	-15.5681
52.200001	105.026	-15.9463
53.000000	104.970	-16.3601
53.799999	104.915	-16.7537
54.500000	104.868	-17.0862
55.200001	104.821	-17.4130
56.000000	104.769	-17.7806
57.000000	104.705	-18.2377
58.000000	104.643	-18.7086
59.000000	104.579	-19.1896
60.000000	104.513	-19.6624
60.799999	104.460	-20.0333
61.500000	104.412	-20.3513
62.200001	104.363	-20.6580
63.000000	104.306	-20.9890
64.000000	104.233	-21.3730
65.000000	104.161	-21.7338
66.000000	104.089	-22.0829
67.000000	104.018	-22.4249
68.000000	103.948	-22.7658
69.000000	103.879	-23.1039
70.000000	103.810	-23.4270
71.000000	103.741	-23.7278
72.000000	103.673	-24.0017
73.000000	103.604	-24.2432
74.000000	103.537	-24.4619
75.000000	103.471	-24.6821
76.199997	103.392	-24.9681
77.500000	103.305	-25.2900
78.800003	103.219	-25.5833
80.000000	103.147	-25.8267
81.199997	103.080	-26.0639
82.500000	103.009	-26.3138
83.800003	102.933	-26.5665
85.000000	102.854	-26.8052
86.199997	102.764	-27.0098
87.500000	102.662	-27.1699
88.500000	102.588	-27.2599
90.000000	102.489	-27.3701
91.199997	102.421	-27.4740
92.500000	102.354	-27.6202
93.800003	102.282	-27.7765
95.000000	102.208	-27.8757
96.199997	102.131	-27.8915
97.500000	102.050	-27.8237
98.800003	101.978	-27.7076
100.000000	101.924	-27.5984
101.500000	101.871	-27.5057
103.000000	101.835	-27.4874
104.400002	101.812	-27.5515
106.000000	101.790	-27.7566
107.500000	101.760	-28.1040
109.000000	101.707	-28.5339
110.599998	101.634	-28.9333
112.000000	101.577	-29.1769
113.800003	101.515	-29.3557
115.000000	101.470	-29.3446
117.199997	101.377	-28.9880
118.000000	101.345	-28.8187
120.599998	101.240	-28.7402
122.000000	101.159	-29.0526
124.099998	101.021	-29.5811
125.000000	100.967	-29.7588
126.500000	100.892	-29.9637
128.000000	100.826	-30.0564
131.500000	100.678	-30.0634
132.000000	100.656	-30.0641
134.000000	100.570	-30.0866
136.000000	100.485	-30.1185
138.000000	100.401	-30.1243
140.000000	100.316	-30.1112
143.000000	100.193	-30.1204
145.000000	100.112	-30.1185
147.500000	100.013	-30.0687
150.000000	99.913	-29.9841
152.500000	99.809	-29.8846
155.000000	99.706	-29.7657
157.500000	99.611	-29.6259
160.000000	99.522	-29.4937
162.500000	99.435	-29.3893
165.000000	99.345	-29.3026
167.500000	99.252	-29.2064
170.000000	99.157	-29.0775
172.500000	99.065	-28.9122
175.000000	98.976	-28.7230
177.500000	98.892	-28.5253
180.000000	98.809	-28.3289
182.500000	98.725	-28.1354
185.000000	98.641	-27.9354
187.500000	98.555	-27.7037
190.000000	98.470	-27.4089
192.500000	98.385	-27.0362
195.000000	98.308	-26.5847
197.500000	98.244	-26.0560
200.000000	98.201	-25.4719
203.000000	98.180	-24.7959
206.000000	98.183	-24.2969
209.000000	98.196	-24.0558
212.000000	98.198	-24.0234
214.000000	98.185	-24.0571
218.000000	98.129	-24.1096
220.000000	98.091	-24.0957
224.000000	98.010	-23.9921
227.000000	97.950	-23.8746
230.000000	97.890	-23.7421
233.000000	97.831	-23.6036
236.000000	97.773	-23.4601
240.000000	97.692	-23.2559
243.000000	97.630	-23.0844
247.000000	97.542	-22.8107
250.000000	97.477	-22.5632
254.000000	97.396	-22.1879
258.000000	97.330	-21.8019
262.000000	97.273	-21.4579
265.000000	97.230	-21.2288
269.000000	97.169	-20.9197
272.000000	97.123	-20.6630
276.000000	97.065	-20.2865
280.000000	97.014	-19.8897
285.000000	96.963	-19.4058
290.000000	96.922	-19.0040
295.000000	96.876	-18.6985
300.000000	96.818	-18.3990
304.000000	96.768	-18.1244
307.000000	96.730	-17.9027
311.000000	96.681	-17.6010
315.000000	96.633	-17.2992
320.000000	96.571	-16.9051
325.000000	96.510	-16.4736
330.000000	96.456	-16.0206
335.000000	96.407	-15.5747
340.000000	96.360	-15.1501
345.000000	96.313	-14.7393
350.000000	96.266	-14.3253
355.000000	96.219	-13.9030
360.000000	96.173	-13.4757
365.000000	96.130	-13.0472
370.000000	96.088	-12.6181
375.000000	96.047	-12.1874
382.000000	95.994	-11.5826
387.000000	95.958	-11.1512
395.000000	95.904	-10.4608
400.000000	95.873	-10.0308
406.000000	95.839	-9.5237
412.000000	95.804	-9.0290
418.000000	95.769	-8.5300
425.000000	95.730	-7.9185
431.000000	95.703	-7.3765
437.000000	95.682	-6.8441
444.000000	95.665	-6.2532
450.000000	95.654	-5.7876
455.000000	95.646	-5.4444
462.000000	95.628	-5.0187
468.000000	95.603	-4.6518
475.000000	95.570	-4.1812
482.000000	95.539	-3.6842
487.000000	95.518	-3.3272
494.000000	95.486	-2.8099
500.000000	95.461	-2.3370
508.000000	95.434	-1.6972
515.000000	95.414	-1.1586
522.000000	95.393	-0.6301
530.000000	95.369	-0.0090
538.000000	95.349	0.6318
545.000000	95.335	1.1932
552.000000	95.325	1.7515
560.000000	95.316	2.3766
570.000000	95.306	3.1296
580.000000	95.295	3.8777
590.000000	95.285	4.6382
600.000000	95.277	5.4208
608.000000	95.275	6.0509
615.000000	95.275	6.5948
622.000000	95.274	7.1417
630.000000	95.275	7.7900
640.000000	95.283	8.6285
650.000000	95.301	9.4701
660.000000	95.331	10.2878
670.000000	95.368	11.0246
680.000000	95.402	11.6761
690.000000	95.428	12.3016
700.000000	95.448	12.9473
710.000000	95.468	13.6228
720.000000	95.492	14.3082
730.000000	95.518	14.9928
740.000000	95.545	15.6801
750.000000	95.575	16.3728
762.000000	95.613	17.2111
775.000000	95.658	18.1229
788.000000	95.709	19.0342
800.000000	95.761	19.8857
812.000000	95.822	20.7444
825.000000	95.903	21.6226
838.000000	95.987	22.3888
850.000000	96.056	23.0307
862.000000	96.116	23.6809
875.000000	96.176	24.4537
885.000000	96.226	25.1172
900.000000	96.325	26.1959
912.000000	96.432	27.0538
925.000000	96.570	27.8641
938.000000	96.717	28.4947
950.000000	96.848	28.9452
962.000000	96.970	29.3277
975.000000	97.096	29.7136
988.000000	97.216	30.0837
1000.000000	97.325	30.4102
1015.000000	97.462	30.7978
1030.000000	97.602	31.1333
1044.000000	97.732	31.3526
1060.000000	97.865	31.4963
1075.000000	97.969	31.6357
1090.000000	98.064	31.8717
1106.000000	98.171	32.2160
1120.000000	98.274	32.5399
1138.000000	98.419	32.9235
1150.000000	98.522	33.1387
1172.000000	98.721	33.4356
1180.000000	98.795	33.5139
1206.000000	99.048	33.6212
1220.000000	99.182	33.5520
1241.000000	99.368	33.3212
1250.000000	99.440	33.2022
1265.000000	99.553	33.0012
1280.000000	99.659	32.8058
1315.000000	99.893	32.3756
1320.000000	99.926	32.3124
1340.000000	100.055	32.0472
1360.000000	100.183	31.7781
1380.000000	100.312	31.5367
1400.000000	100.447	31.3443
1430.000000	100.670	31.0458
1450.000000	100.822	30.7449
1475.000000	101.000	30.2681
1500.000000	101.157	29.7398
1525.000000	101.286	29.2050
1550.000000	101.390	28.6936
1575.000000	101.483	28.1935
1600.000000	101.576	27.6139
1625.000000	101.660	26.9044
1650.000000	101.726	26.1146
1675.000000	101.775	25.3016
1700.000000	101.809	24.4869
1725.000000	101.828	23.6740
1750.000000	101.826	22.8942
1775.000000	101.806	22.2028
1800.000000	101.780	21.6132
1825.000000	101.754	21.0798
1850.000000	101.727	20.5872
1875.000000	101.700	20.1631
1900.000000	101.685	19.8239
1925.000000	101.693	19.5414
1950.000000	101.734	19.2363
1975.000000	101.798	18.7992
2000.000000	101.864	18.1683
2030.000000	101.916	17.2168
2060.000000	101.927	16.2104
2090.000000	101.900	15.2839
2120.000000	101.843	14.5197
2140.000000	101.794	14.1353
2180.000000	101.692	13.6959
2200.000000	101.652	13.5901
2240.000000	101.601	13.3970
2270.000000	101.576	13.1622
2300.000000	101.546	12.8437
2330.000000	101.504	12.4991
2360.000000	101.453	12.1691
2400.000000	101.368	11.7692
2430.000000	101.291	11.5281
2470.000000	101.175	11.3356
2500.000000	101.081	11.3065
2540.000000	100.952	11.4580
2580.000000	100.836	11.8300
2620.000000	100.746	12.3210
2650.000000	100.693	12.7068
2690.000000	100.635	13.2274
2720.000000	100.598	13.6346
2760.000000	100.562	14.1908
2800.000000	100.540	14.7317
2850.000000	100.525	15.3600
2900.000000	100.519	15.9064
2950.000000	100.510	16.3986
3000.000000	100.498	16.8751
3040.000000	100.482	17.2642
3070.000000	100.465	17.5938
3110.000000	100.443	18.1268
3150.000000	100.432	18.7600
3200.000000	100.442	19.6083
3250.000000	100.473	20.4323
3300.000000	100.515	21.2074
3350.000000	100.565	21.9708
3400.000000	100.628	22.7190
3450.000000	100.700	23.4348
3500.000000	100.777	24.1686
3550.000000	100.869	24.9569
3600.000000	100.982	25.7606
3650.000000	101.117	26.5138
3700.000000	101.265	27.1865
3750.000000	101.425	27.7872
3820.000000	101.664	28.4848
3870.000000	101.840	28.8794
3950.000000	102.139	29.3676
4000.000000	102.346	29.5225
4060.000000	102.607	29.4541
4120.000000	102.868	29.0794
4180.000000	103.117	28.4158
4250.000000	103.379	27.3213
4310.000000	103.574	26.1995
4370.000000	103.748	24.9471
4440.000000	103.928	23.2599
4500.000000	104.053	21.5781
4550.000000	104.129	20.0238
4620.000000	104.181	17.6711
4680.000000	104.169	15.5925
4750.000000	104.094	13.2318
4820.000000	103.966	10.9977
4870.000000	103.845	9.4902
4940.000000	103.635	7.5394
5000.000000	103.418	6.0504
5080.000000	103.080	4.4072
5150.000000	102.750	3.3585
5220.000000	102.402	2.6635
5300.000000	101.990	2.2412
5380.000000	101.558	2.1942
5450.000000	101.150	2.5394
5520.000000	100.709	3.4659
5600.000000	100.197	5.6198
5700.000000	99.743	10.1200
5800.000000	99.739	14.7090
5900.000000	99.916	16.8965
6000.000000	99.919	17.7468
6080.000000	99.818	18.7017
6150.000000	99.717	19.9484
6220.000000	99.635	21.5002
6300.000000	99.578	23.5334
6400.000000	99.572	26.3448
6500.000000	99.650	29.3395
6600.000000	99.816	32.3924
6700.000000	100.067	35.4191
6800.000000	100.406	38.3939
6900.000000	100.841	41.2728
7000.000000	101.377	43.9571
7100.000000	102.024	46.3391
7200.000000	102.798	48.3218
7300.000000	103.716	49.7454
7400.000000	104.781	50.3247
7500.000000	105.964	49.6652
7620.000000	107.455	46.5669
7750.000000	108.962	39.3849
7880.000000	110.072	27.6618
8000.000000	110.526	13.8529
8120.000000	110.357	-0.2992
8250.000000	109.564	-13.0891
8380.000000	108.366	-21.7533
8500.000000	107.139	-26.3005
8620.000000	105.994	-28.5099
8750.000000	104.979	-29.4941
8850.000000	104.379	-29.8599
9000.000000	103.737	-30.4173
9120.000000	103.400	-31.2698
9250.000000	103.148	-32.9244
9380.000000	102.946	-35.5010
9500.000000	102.749	-38.7362
9620.000000	102.502	-42.7576
9750.000000	102.131	-47.8777
9880.000000	101.603	-53.4959
10000.000000	100.934	-58.6288
10150.000000	99.835	-64.0781
10300.000000	98.490	-67.6993
10440.000000	97.099	-69.2256
10600.000000	95.453	-68.9631
10750.000000	93.941	-67.1398
10900.000000	92.516	-64.1794
11060.000000	91.121	-60.0942
11200.000000	90.018	-55.9513
11380.000000	88.762	-50.0804
11500.000000	88.021	-45.9150
11720.000000	86.855	-37.9468
11800.000000	86.488	-34.9777
12060.000000	85.494	-25.1963
12200.000000	85.075	-19.9128
12410.000000	84.589	-12.0486
12500.000000	84.430	-8.7264
12650.000000	84.230	-3.2805
12800.000000	84.108	2.0268
13150.000000	84.116	13.6940
13200.000000	84.149	15.2650
13400.000000	84.364	21.2665
13600.000000	84.710	26.7660
13800.000000	85.202	31.6493
14000.000000	85.858	35.6920
14300.000000	87.140	39.1240
14500.000000	88.074	38.5283
14750.000000	89.014	33.3383
15000.000000	89.318	24.1672
15250.000000	88.810	15.3287
15500.000000	87.825	10.2911
15750.000000	86.855	7.2294
16000.000000	85.744	5.1662
16250.000000	84.284	7.7419
16500.000000	83.021	17.3162
16750.000000	83.161	30.9050
17000.000000	84.755	40.7621
17250.000000	86.483	41.1167
17500.000000	87.582	32.6523
17750.000000	87.933	19.9668
18000.000000	87.682	7.0126
18250.000000	87.006	-4.5862
18500.000000	86.029	-14.5894
18750.000000	84.827	-23.1587
19000.000000	83.453	-30.5763
19250.000000	81.945	-37.1067
19500.000000	80.345	-42.7596
19750.000000	78.805	-47.1445
