* Measurement data measured by REW V5.20.13
* Source: Mic in at front panel (Pink) (Realtek(R) Audio), MICROPHONE (Master Volume), L, volume: 0.250
* Format: 256k Log Swept Sine, 1 sweep at -12.0 dBFS with no timing reference
* Dated: Feb 3, 2023 1:23:46 AM
* REW Settings:
*  C-weighting compensation: Off
*  Target level: 75.0 dB
* Note: KZ DQS R
* Measurement: KZ DQS R
* Smoothing: 1/12 octave
* Frequency Step: 1/48 octave
* Start Frequency: 20.000 Hz
*
* Freq(Hz)	SPL(dB)	Phase(degrees)
20.000000	110.799	12.5110
20.299999	110.801	11.7811
20.600000	110.802	11.0635
20.900000	110.802	10.3583
21.200001	110.800	9.6661
21.400000	110.798	9.2125
21.799999	110.793	8.3243
22.000000	110.790	7.8892
22.400000	110.783	7.0349
22.700001	110.776	6.4059
23.000000	110.769	5.7858
23.299999	110.761	5.1753
23.600000	110.752	4.5760
24.000000	110.738	3.7966
24.299999	110.727	3.2264
24.700001	110.713	2.4814
25.000000	110.702	1.9301
25.400000	110.687	1.2012
25.799999	110.669	0.4813
26.200001	110.650	-0.2217
26.500000	110.634	-0.7334
26.900000	110.613	-1.3941
27.200001	110.598	-1.8777
27.600000	110.579	-2.5156
28.000000	110.560	-3.1534
28.500000	110.533	-3.9473
29.000000	110.502	-4.7152
29.500000	110.469	-5.4413
30.000000	110.438	-6.1367
30.400000	110.415	-6.6893
30.700001	110.398	-7.1069
31.100000	110.372	-7.6623
31.500000	110.344	-8.2015
32.000000	110.307	-8.8345
32.500000	110.275	-9.4332
33.000000	110.249	-10.0449
33.500000	110.223	-10.7048
34.000000	110.188	-11.3948
34.500000	110.143	-12.0526
35.000000	110.092	-12.6319
35.500000	110.046	-13.1420
36.000000	110.008	-13.6358
36.500000	109.975	-14.1561
37.000000	109.940	-14.7017
37.500000	109.899	-15.2405
38.200001	109.839	-15.9408
38.700001	109.798	-16.4126
39.500000	109.736	-17.1688
40.000000	109.695	-17.6441
40.599998	109.644	-18.2012
41.200001	109.592	-18.7366
41.799999	109.540	-19.2552
42.500000	109.479	-19.8430
43.099998	109.426	-20.3286
43.700001	109.373	-20.7981
44.400002	109.312	-21.3314
45.000000	109.260	-21.7767
45.500000	109.215	-22.1359
46.200001	109.153	-22.6188
46.799999	109.102	-23.0201
47.500000	109.042	-23.4840
48.200001	108.982	-23.9454
48.700001	108.938	-24.2710
49.400002	108.876	-24.7163
50.000000	108.822	-25.0841
50.799999	108.750	-25.5482
51.500000	108.689	-25.9285
52.200001	108.630	-26.2924
53.000000	108.567	-26.7039
53.799999	108.506	-27.1234
54.500000	108.452	-27.4980
55.200001	108.396	-27.8732
56.000000	108.329	-28.2919
57.000000	108.244	-28.7924
58.000000	108.157	-29.2744
59.000000	108.069	-29.7402
60.000000	107.979	-30.1720
60.799999	107.908	-30.4843
61.500000	107.848	-30.7400
62.200001	107.790	-30.9885
63.000000	107.724	-31.2701
64.000000	107.640	-31.6157
65.000000	107.554	-31.9415
66.000000	107.469	-32.2469
67.000000	107.385	-32.5557
68.000000	107.301	-32.8812
69.000000	107.213	-33.1948
70.000000	107.123	-33.4645
71.000000	107.035	-33.6879
72.000000	106.949	-33.8723
73.000000	106.865	-34.0230
74.000000	106.784	-34.1427
75.000000	106.708	-34.2308
76.199997	106.625	-34.3003
77.500000	106.550	-34.3434
78.800003	106.493	-34.3695
80.000000	106.455	-34.4098
81.199997	106.428	-34.5286
82.500000	106.395	-34.8042
83.800003	106.343	-35.2065
85.000000	106.274	-35.6062
86.199997	106.193	-35.9816
87.500000	106.102	-36.3561
88.500000	106.032	-36.6165
90.000000	105.926	-36.9528
91.199997	105.842	-37.1791
92.500000	105.751	-37.3953
93.800003	105.658	-37.5946
95.000000	105.573	-37.7672
96.199997	105.487	-37.9250
97.500000	105.397	-38.0729
98.800003	105.309	-38.1922
100.000000	105.230	-38.2758
101.500000	105.133	-38.3498
103.000000	105.038	-38.4014
104.400002	104.952	-38.4385
106.000000	104.857	-38.4720
107.500000	104.771	-38.4935
109.000000	104.687	-38.5059
110.599998	104.600	-38.5170
112.000000	104.526	-38.5350
113.800003	104.433	-38.5703
115.000000	104.374	-38.5835
117.199997	104.271	-38.5386
118.000000	104.238	-38.5040
120.599998	104.135	-38.4117
122.000000	104.078	-38.3969
124.099998	103.990	-38.4231
125.000000	103.953	-38.4528
126.500000	103.892	-38.5219
128.000000	103.831	-38.6051
131.500000	103.684	-38.8054
132.000000	103.663	-38.8321
134.000000	103.574	-38.9297
136.000000	103.482	-39.0087
138.000000	103.387	-39.0633
140.000000	103.292	-39.0909
143.000000	103.152	-39.0888
145.000000	103.060	-39.0625
147.500000	102.945	-38.9974
150.000000	102.829	-38.8982
152.500000	102.713	-38.7679
155.000000	102.601	-38.5972
157.500000	102.501	-38.3942
160.000000	102.412	-38.1978
162.500000	102.329	-38.0392
165.000000	102.246	-37.9158
167.500000	102.159	-37.7990
170.000000	102.070	-37.6608
172.500000	101.983	-37.4979
175.000000	101.899	-37.3280
177.500000	101.818	-37.1649
180.000000	101.739	-37.0077
182.500000	101.662	-36.8495
185.000000	101.586	-36.6841
187.500000	101.512	-36.5078
190.000000	101.437	-36.3269
192.500000	101.358	-36.1557
195.000000	101.274	-35.9894
197.500000	101.189	-35.8058
200.000000	101.108	-35.5875
203.000000	101.017	-35.2822
206.000000	100.934	-34.9602
209.000000	100.856	-34.6466
212.000000	100.779	-34.3337
214.000000	100.727	-34.1128
218.000000	100.627	-33.6188
220.000000	100.584	-33.3515
224.000000	100.514	-32.8306
227.000000	100.474	-32.4939
230.000000	100.438	-32.2213
233.000000	100.403	-32.0111
236.000000	100.366	-31.8551
240.000000	100.306	-31.7104
243.000000	100.253	-31.6229
247.000000	100.170	-31.4819
250.000000	100.102	-31.3281
254.000000	100.012	-31.0439
258.000000	99.931	-30.7115
262.000000	99.859	-30.4053
265.000000	99.804	-30.2000
269.000000	99.726	-29.9182
272.000000	99.667	-29.6791
276.000000	99.591	-29.3218
280.000000	99.523	-28.9391
285.000000	99.449	-28.4675
290.000000	99.385	-28.0724
295.000000	99.317	-27.7672
300.000000	99.238	-27.4644
304.000000	99.171	-27.1853
307.000000	99.121	-26.9588
311.000000	99.057	-26.6479
315.000000	98.994	-26.3337
320.000000	98.914	-25.9219
325.000000	98.836	-25.4719
330.000000	98.765	-24.9999
335.000000	98.700	-24.5349
340.000000	98.638	-24.0920
345.000000	98.577	-23.6630
350.000000	98.515	-23.2307
355.000000	98.455	-22.7896
360.000000	98.396	-22.3436
365.000000	98.339	-21.8961
370.000000	98.284	-21.4476
375.000000	98.231	-20.9971
382.000000	98.159	-20.3633
387.000000	98.109	-19.9098
395.000000	98.034	-19.1817
400.000000	97.990	-18.7264
406.000000	97.939	-18.1879
412.000000	97.888	-17.6600
418.000000	97.837	-17.1260
425.000000	97.780	-16.4727
431.000000	97.737	-15.8950
437.000000	97.701	-15.3261
444.000000	97.665	-14.6901
450.000000	97.639	-14.1839
455.000000	97.618	-13.8060
462.000000	97.582	-13.3304
468.000000	97.542	-12.9188
475.000000	97.492	-12.3945
482.000000	97.444	-11.8428
487.000000	97.411	-11.4459
494.000000	97.363	-10.8715
500.000000	97.323	-10.3488
508.000000	97.278	-9.6406
515.000000	97.243	-9.0404
522.000000	97.207	-8.4485
530.000000	97.165	-7.7527
538.000000	97.127	-7.0363
545.000000	97.098	-6.4088
552.000000	97.073	-5.7848
560.000000	97.047	-5.0847
570.000000	97.016	-4.2358
580.000000	96.983	-3.3888
590.000000	96.951	-2.5269
600.000000	96.922	-1.6408
608.000000	96.903	-0.9259
615.000000	96.888	-0.3055
622.000000	96.872	0.3204
630.000000	96.856	1.0615
640.000000	96.844	2.0192
650.000000	96.842	2.9824
660.000000	96.852	3.9238
670.000000	96.872	4.7862
680.000000	96.888	5.5652
690.000000	96.897	6.3196
700.000000	96.901	7.0962
710.000000	96.907	7.9049
720.000000	96.916	8.7255
730.000000	96.927	9.5469
740.000000	96.941	10.3724
750.000000	96.958	11.2045
762.000000	96.982	12.2111
775.000000	97.015	13.3072
788.000000	97.055	14.4037
800.000000	97.097	15.4265
812.000000	97.151	16.4568
825.000000	97.226	17.5200
838.000000	97.306	18.4658
850.000000	97.375	19.2611
862.000000	97.438	20.0392
875.000000	97.504	20.8962
885.000000	97.556	21.5681
900.000000	97.638	22.5790
912.000000	97.707	23.3928
925.000000	97.789	24.2743
938.000000	97.878	25.1273
950.000000	97.964	25.8724
962.000000	98.050	26.5900
975.000000	98.143	27.3629
988.000000	98.241	28.1380
1000.000000	98.337	28.8456
1015.000000	98.467	29.7042
1030.000000	98.609	30.5014
1044.000000	98.750	31.1448
1060.000000	98.908	31.7326
1075.000000	99.046	32.1879
1090.000000	99.173	32.6105
1106.000000	99.303	33.0466
1120.000000	99.412	33.4190
1138.000000	99.548	33.8927
1150.000000	99.638	34.2092
1172.000000	99.802	34.7993
1180.000000	99.863	35.0174
1206.000000	100.075	35.6701
1220.000000	100.192	35.9315
1241.000000	100.355	36.2181
1250.000000	100.420	36.3248
1265.000000	100.522	36.5024
1280.000000	100.619	36.6888
1315.000000	100.837	37.1642
1320.000000	100.867	37.2326
1340.000000	100.987	37.5008
1360.000000	101.102	37.7771
1380.000000	101.212	38.0945
1400.000000	101.326	38.4751
1430.000000	101.519	39.0650
1450.000000	101.655	39.3763
1475.000000	101.821	39.6880
1500.000000	101.978	39.9744
1525.000000	102.130	40.2807
1550.000000	102.284	40.6364
1575.000000	102.450	41.0283
1600.000000	102.632	41.3634
1625.000000	102.817	41.5843
1650.000000	102.998	41.7270
1675.000000	103.174	41.8311
1700.000000	103.348	41.9019
1725.000000	103.519	41.9308
1750.000000	103.684	41.9421
1775.000000	103.845	41.9823
1800.000000	104.014	42.0499
1825.000000	104.193	42.0766
1850.000000	104.374	42.0212
1875.000000	104.552	41.8969
1900.000000	104.725	41.7363
1925.000000	104.895	41.5711
1950.000000	105.069	41.4087
1975.000000	105.251	41.2077
2000.000000	105.437	40.9153
2030.000000	105.655	40.4333
2060.000000	105.862	39.8453
2090.000000	106.057	39.1806
2120.000000	106.239	38.4594
2140.000000	106.352	37.9693
2180.000000	106.570	37.0144
2200.000000	106.679	36.5303
2240.000000	106.894	35.4707
2270.000000	107.044	34.5944
2300.000000	107.180	33.6898
2330.000000	107.309	32.7925
2360.000000	107.435	31.8877
2400.000000	107.598	30.5938
2430.000000	107.707	29.5453
2470.000000	107.830	28.0806
2500.000000	107.901	26.9658
2540.000000	107.970	25.5348
2580.000000	108.019	24.2262
2620.000000	108.060	23.0058
2650.000000	108.082	22.1315
2690.000000	108.101	21.0533
2720.000000	108.111	20.3372
2760.000000	108.131	19.4799
2800.000000	108.158	18.6623
2850.000000	108.197	17.6352
2900.000000	108.230	16.6042
2950.000000	108.256	15.6325
3000.000000	108.284	14.7209
3040.000000	108.306	13.9995
3070.000000	108.320	13.4761
3110.000000	108.337	12.8392
3150.000000	108.361	12.2742
3200.000000	108.409	11.6006
3250.000000	108.475	10.8762
3300.000000	108.550	10.0554
3350.000000	108.629	9.1506
3400.000000	108.712	8.1458
3450.000000	108.791	7.0219
3500.000000	108.861	5.8231
3550.000000	108.929	4.5747
3600.000000	108.998	3.2327
3650.000000	109.063	1.7437
3700.000000	109.113	0.1027
3750.000000	109.144	-1.6521
3820.000000	109.151	-4.2655
3870.000000	109.123	-6.2050
3950.000000	109.029	-9.3059
4000.000000	108.945	-11.2443
4060.000000	108.817	-13.6063
4120.000000	108.650	-15.9802
4180.000000	108.440	-18.3045
4250.000000	108.139	-20.8762
4310.000000	107.835	-22.8563
4370.000000	107.500	-24.5767
4440.000000	107.085	-26.2892
4500.000000	106.710	-27.5272
4550.000000	106.384	-28.3868
4620.000000	105.908	-29.3102
4680.000000	105.484	-29.8010
4750.000000	104.983	-29.9793
4820.000000	104.493	-29.7795
4870.000000	104.153	-29.4558
4940.000000	103.695	-28.7950
5000.000000	103.315	-28.0602
5080.000000	102.823	-26.8256
5150.000000	102.408	-25.4679
5220.000000	102.020	-23.8743
5300.000000	101.615	-21.8438
5380.000000	101.249	-19.6610
5450.000000	100.954	-17.6470
5520.000000	100.680	-15.5046
5600.000000	100.399	-12.8777
5700.000000	100.107	-9.3902
5800.000000	99.886	-5.7948
5900.000000	99.723	-2.1537
6000.000000	99.616	1.5643
6080.000000	99.574	4.5846
6150.000000	99.571	7.2343
6220.000000	99.597	9.8718
6300.000000	99.660	12.8772
6400.000000	99.792	16.6498
6500.000000	99.996	20.4187
6600.000000	100.277	24.1023
6700.000000	100.632	27.6458
6800.000000	101.063	31.0607
6900.000000	101.586	34.3405
7000.000000	102.219	37.4099
7100.000000	102.978	40.1596
7200.000000	103.883	42.4621
7300.000000	104.949	44.0909
7400.000000	106.167	44.6488
7500.000000	107.478	43.5848
7620.000000	109.028	39.2680
7750.000000	110.412	29.8423
7880.000000	111.197	15.7151
8000.000000	111.256	0.8587
8120.000000	110.705	-12.4042
8250.000000	109.594	-22.4996
8380.000000	108.220	-27.9684
8500.000000	106.954	-29.9116
8620.000000	105.853	-29.9906
8750.000000	104.929	-28.9977
8850.000000	104.417	-27.9402
9000.000000	103.950	-26.4688
9120.000000	103.803	-25.8574
9250.000000	103.811	-26.2328
9380.000000	103.914	-28.0660
9500.000000	104.010	-31.2999
9620.000000	104.019	-36.0570
9750.000000	103.835	-42.6017
9880.000000	103.378	-49.8484
10000.000000	102.686	-56.3040
10150.000000	101.475	-62.9141
10300.000000	99.964	-67.1241
10440.000000	98.390	-68.7805
10600.000000	96.521	-68.3087
10750.000000	94.801	-66.0427
10900.000000	93.178	-62.4796
11060.000000	91.599	-57.6824
11200.000000	90.362	-52.9707
11380.000000	88.958	-46.5483
11500.000000	88.115	-42.0982
11720.000000	86.720	-33.5621
11800.000000	86.256	-30.3268
12060.000000	84.911	-19.3907
12200.000000	84.290	-13.3060
12410.000000	83.492	-4.0092
12500.000000	83.198	0.0172
12650.000000	82.771	6.7706
12800.000000	82.421	13.5721
13150.000000	81.926	29.5209
13200.000000	81.894	31.7917
13400.000000	81.874	40.7818
13600.000000	82.029	49.5367
13800.000000	82.374	57.9338
14000.000000	82.932	65.7992
14300.000000	84.176	75.7247
14500.000000	85.164	80.0949
14750.000000	86.258	82.0967
15000.000000	86.923	81.8581
15250.000000	87.455	83.3291
15500.000000	88.500	86.0641
15750.000000	89.808	85.0592
16000.000000	90.725	78.7664
16250.000000	91.061	70.2542
16500.000000	91.051	62.6340
16750.000000	91.079	56.0833
17000.000000	91.337	48.2356
17250.000000	91.612	36.3295
17500.000000	91.446	20.0413
17750.000000	90.482	3.0016
18000.000000	88.665	-9.8565
18250.000000	86.190	-16.4204
18500.000000	83.345	-17.8016
18750.000000	80.415	-16.1992
19000.000000	77.615	-13.3928
19250.000000	75.044	-10.3114
19500.000000	72.666	-7.0436
19750.000000	70.360	-3.0017
20000.000000	68.007	2.7376
