* Measurement data measured by REW V5.20.11
* Source: Mic in at front panel (Pink) (Realtek(R) Audio), MICROPHONE (Master Volume), L, volume: 0.250
* Format: 256k Log Swept Sine, 1 sweep at -12.0 dBFS with no timing reference
* Dated: Aug 13, 2022 12:03:03 AM
* REW Settings:
*  C-weighting compensation: Off
*  Target level: 75.0 dB
* Note: KZ VXS L
* Measurement: KZ VXS L
* Smoothing: 1/12 octave
* Frequency Step: 1/48 octave
* Start Frequency: 20.000 Hz
*
* Freq(Hz)	SPL(dB)	Phase(degrees)
20.000000	106.353	-161.8793
20.299999	106.342	-162.4813
20.600000	106.328	-163.0697
20.900000	106.310	-163.6456
21.200001	106.292	-164.2097
21.400000	106.281	-164.5799
21.799999	106.263	-165.3071
22.000000	106.255	-165.6642
22.400000	106.244	-166.3653
22.700001	106.236	-166.8785
23.000000	106.229	-167.3798
23.299999	106.222	-167.8689
23.600000	106.215	-168.3464
24.000000	106.206	-168.9669
24.299999	106.198	-169.4215
24.700001	106.184	-170.0143
25.000000	106.172	-170.4484
25.400000	106.152	-171.0125
25.799999	106.132	-171.5590
26.200001	106.112	-172.0895
26.500000	106.096	-172.4785
26.900000	106.074	-172.9874
27.200001	106.056	-173.3623
27.600000	106.030	-173.8526
28.000000	106.003	-174.3312
28.500000	105.971	-174.9135
29.000000	105.943	-175.4815
29.500000	105.916	-176.0380
30.000000	105.888	-176.5806
30.400000	105.867	-177.0008
30.700001	105.851	-177.3065
31.100000	105.832	-177.7022
31.500000	105.813	-178.0869
32.000000	105.787	-178.5571
32.500000	105.759	-179.0179
33.000000	105.729	-179.4677
33.500000	105.700	-179.9045
34.000000	105.674	179.6715
34.500000	105.650	179.2595
35.000000	105.628	178.8586
35.500000	105.608	178.4675
36.000000	105.592	178.0839
36.500000	105.578	177.7061
37.000000	105.561	177.3362
37.500000	105.541	176.9780
38.200001	105.504	176.4993
38.700001	105.473	176.1696
39.500000	105.419	175.6526
40.000000	105.386	175.3362
40.599998	105.351	174.9670
41.200001	105.321	174.6116
41.799999	105.293	174.2701
42.500000	105.265	173.8867
43.099998	105.245	173.5676
43.700001	105.226	173.2542
44.400002	105.202	172.8955
45.000000	105.180	172.5954
45.500000	105.160	172.3513
46.200001	105.133	172.0194
46.799999	105.108	171.7446
47.500000	105.078	171.4336
48.200001	105.046	171.1287
48.700001	105.021	170.9137
49.400002	104.987	170.6189
50.000000	104.961	170.3737
50.799999	104.935	170.0551
51.500000	104.916	169.7820
52.200001	104.899	169.5156
53.000000	104.878	169.2199
53.799999	104.857	168.9291
54.500000	104.841	168.6764
55.200001	104.827	168.4271
56.000000	104.811	168.1495
57.000000	104.791	167.8127
58.000000	104.770	167.4801
59.000000	104.748	167.1459
60.000000	104.726	166.8146
60.799999	104.708	166.5561
61.500000	104.695	166.3334
62.200001	104.686	166.1104
63.000000	104.679	165.8520
64.000000	104.674	165.5226
65.000000	104.670	165.1876
66.000000	104.664	164.8482
67.000000	104.659	164.5065
68.000000	104.653	164.1630
69.000000	104.646	163.8149
70.000000	104.636	163.4610
71.000000	104.624	163.1022
72.000000	104.616	162.7311
73.000000	104.613	162.3377
74.000000	104.616	161.9227
75.000000	104.621	161.4950
76.199997	104.623	160.9749
77.500000	104.619	160.4157
78.800003	104.612	159.8660
80.000000	104.606	159.3535
81.199997	104.600	158.8265
82.500000	104.595	158.2378
83.800003	104.594	157.6286
85.000000	104.594	157.0511
86.199997	104.594	156.4633
87.500000	104.590	155.8071
88.500000	104.584	155.2748
90.000000	104.567	154.4175
91.199997	104.546	153.6963
92.500000	104.518	152.8971
93.800003	104.488	152.0870
95.000000	104.459	151.3350
96.199997	104.428	150.5779
97.500000	104.388	149.7541
98.800003	104.338	148.9380
100.000000	104.282	148.1959
101.500000	104.205	147.2762
103.000000	104.126	146.3582
104.400002	104.051	145.5128
106.000000	103.961	144.5957
107.500000	103.867	143.8149
109.000000	103.764	143.1011
110.599998	103.647	142.3591
112.000000	103.544	141.6896
113.800003	103.423	140.8248
115.000000	103.356	140.2962
117.199997	103.263	139.4960
118.000000	103.235	139.2247
120.599998	103.094	138.0913
122.000000	102.951	137.4043
124.099998	102.694	136.5350
125.000000	102.588	136.2098
126.500000	102.425	135.7038
128.000000	102.274	135.2460
131.500000	101.931	134.3937
132.000000	101.883	134.2932
134.000000	101.708	133.9206
136.000000	101.563	133.5385
138.000000	101.432	133.1135
140.000000	101.289	132.6762
143.000000	101.044	132.0514
145.000000	100.869	131.6934
147.500000	100.649	131.3421
150.000000	100.426	131.0761
152.500000	100.206	130.8566
155.000000	99.989	130.6740
157.500000	99.773	130.5502
160.000000	99.552	130.4990
162.500000	99.330	130.5167
165.000000	99.105	130.6005
167.500000	98.869	130.7614
170.000000	98.620	131.0091
172.500000	98.363	131.3373
175.000000	98.107	131.7252
177.500000	97.858	132.1607
180.000000	97.622	132.6583
182.500000	97.406	133.2458
185.000000	97.209	133.9467
187.500000	97.028	134.7728
190.000000	96.860	135.7196
192.500000	96.703	136.7680
195.000000	96.560	137.8960
197.500000	96.433	139.0830
200.000000	96.325	140.3028
203.000000	96.223	141.7608
206.000000	96.152	143.1528
209.000000	96.106	144.4380
212.000000	96.078	145.6138
214.000000	96.067	146.3452
218.000000	96.056	147.6773
220.000000	96.055	148.2637
224.000000	96.060	149.2697
227.000000	96.068	149.9021
230.000000	96.076	150.4549
233.000000	96.081	150.9431
236.000000	96.083	151.3757
240.000000	96.076	151.8801
243.000000	96.064	152.2196
247.000000	96.042	152.6407
250.000000	96.023	152.9410
254.000000	95.997	153.3294
258.000000	95.967	153.7073
262.000000	95.932	154.0756
265.000000	95.904	154.3465
269.000000	95.865	154.7015
272.000000	95.835	154.9637
276.000000	95.793	155.3083
280.000000	95.750	155.6492
285.000000	95.699	156.0815
290.000000	95.649	156.5297
295.000000	95.598	156.9821
300.000000	95.549	157.4331
304.000000	95.513	157.7953
307.000000	95.486	158.0682
311.000000	95.449	158.4344
315.000000	95.411	158.8029
320.000000	95.362	159.2659
325.000000	95.316	159.7315
330.000000	95.272	160.2026
335.000000	95.225	160.6771
340.000000	95.178	161.1516
345.000000	95.133	161.6252
350.000000	95.092	162.0973
355.000000	95.057	162.5679
360.000000	95.024	163.0370
365.000000	94.990	163.5056
370.000000	94.954	163.9743
375.000000	94.920	164.4400
382.000000	94.877	165.0825
387.000000	94.849	165.5395
395.000000	94.804	166.2780
400.000000	94.776	166.7408
406.000000	94.742	167.2923
412.000000	94.709	167.8402
418.000000	94.679	168.3863
425.000000	94.650	169.0222
431.000000	94.628	169.5661
437.000000	94.607	170.1083
444.000000	94.583	170.7380
450.000000	94.564	171.2759
455.000000	94.549	171.7233
462.000000	94.531	172.3480
468.000000	94.518	172.8818
475.000000	94.507	173.5038
482.000000	94.498	174.1240
487.000000	94.492	174.5648
494.000000	94.483	175.1797
500.000000	94.478	175.7061
508.000000	94.474	176.4077
515.000000	94.474	177.0222
522.000000	94.476	177.6369
530.000000	94.481	178.3391
538.000000	94.490	179.0402
545.000000	94.501	179.6512
552.000000	94.515	-179.7412
560.000000	94.535	-179.0526
570.000000	94.566	-178.2031
580.000000	94.604	-177.3688
590.000000	94.647	-176.5561
600.000000	94.699	-175.7756
608.000000	94.749	-175.1839
615.000000	94.798	-174.6964
622.000000	94.852	-174.2424
630.000000	94.915	-173.7704
640.000000	94.996	-173.2601
650.000000	95.077	-172.8473
660.000000	95.158	-172.5358
670.000000	95.236	-172.3218
680.000000	95.304	-172.1917
690.000000	95.358	-172.1226
700.000000	95.394	-172.0855
710.000000	95.414	-172.0481
720.000000	95.421	-171.9814
730.000000	95.419	-171.8647
740.000000	95.411	-171.6880
750.000000	95.399	-171.4523
762.000000	95.383	-171.1103
775.000000	95.370	-170.7115
788.000000	95.354	-170.3362
800.000000	95.327	-170.0088
812.000000	95.272	-169.5930
825.000000	95.189	-168.8262
838.000000	95.129	-167.6209
850.000000	95.132	-166.3138
862.000000	95.189	-165.1072
875.000000	95.278	-164.0441
885.000000	95.350	-163.3630
900.000000	95.455	-162.4575
912.000000	95.539	-161.7899
925.000000	95.633	-161.1180
938.000000	95.729	-160.5054
950.000000	95.820	-159.9926
962.000000	95.912	-159.5251
975.000000	96.013	-159.0621
988.000000	96.114	-158.6376
1000.000000	96.208	-158.2761
1015.000000	96.324	-157.8640
1030.000000	96.437	-157.4946
1044.000000	96.541	-157.1846
1060.000000	96.660	-156.8651
1075.000000	96.772	-156.5924
1090.000000	96.889	-156.3418
1106.000000	97.021	-156.1057
1120.000000	97.143	-155.9439
1138.000000	97.306	-155.8337
1150.000000	97.412	-155.8355
1172.000000	97.595	-155.9876
1180.000000	97.658	-156.0806
1206.000000	97.847	-156.4674
1220.000000	97.942	-156.7104
1241.000000	98.077	-157.1073
1250.000000	98.131	-157.2889
1265.000000	98.217	-157.6075
1280.000000	98.296	-157.9472
1315.000000	98.464	-158.8289
1320.000000	98.486	-158.9657
1340.000000	98.569	-159.5416
1360.000000	98.645	-160.1636
1380.000000	98.710	-160.8320
1400.000000	98.764	-161.5461
1430.000000	98.822	-162.6960
1450.000000	98.844	-163.5070
1475.000000	98.849	-164.5501
1500.000000	98.828	-165.5840
1525.000000	98.778	-166.5333
1550.000000	98.689	-167.2861
1575.000000	98.546	-167.6961
1600.000000	98.329	-167.5976
1625.000000	98.033	-166.8496
1650.000000	97.689	-165.4071
1675.000000	97.371	-163.3896
1700.000000	97.168	-161.0905
1725.000000	97.135	-158.8937
1750.000000	97.265	-157.1389
1775.000000	97.503	-156.0181
1800.000000	97.781	-155.5556
1825.000000	98.045	-155.6527
1850.000000	98.264	-156.1540
1875.000000	98.428	-156.8968
1900.000000	98.536	-157.7372
1925.000000	98.590	-158.5576
1950.000000	98.595	-159.2681
1975.000000	98.559	-159.8029
2000.000000	98.489	-160.1160
2030.000000	98.374	-160.1494
2060.000000	98.237	-159.7569
2090.000000	98.096	-158.8953
2120.000000	97.979	-157.5666
2140.000000	97.927	-156.4579
2180.000000	97.920	-153.9167
2200.000000	97.970	-152.6016
2240.000000	98.160	-150.1307
2270.000000	98.362	-148.5171
2300.000000	98.597	-147.1412
2330.000000	98.854	-146.0189
2360.000000	99.123	-145.1661
2400.000000	99.481	-144.4250
2430.000000	99.738	-144.0916
2470.000000	100.067	-143.8073
2500.000000	100.311	-143.6687
2540.000000	100.641	-143.6189
2580.000000	100.971	-143.8066
2620.000000	101.285	-144.2469
2650.000000	101.504	-144.6938
2690.000000	101.773	-145.3576
2720.000000	101.963	-145.8672
2760.000000	102.207	-146.5503
2800.000000	102.450	-147.2680
2850.000000	102.753	-148.2961
2900.000000	103.046	-149.5380
2950.000000	103.312	-150.9830
3000.000000	103.546	-152.5662
3040.000000	103.715	-153.8953
3070.000000	103.834	-154.9216
3110.000000	103.986	-156.3310
3150.000000	104.130	-157.7947
3200.000000	104.295	-159.7098
3250.000000	104.433	-161.7122
3300.000000	104.537	-163.7614
3350.000000	104.602	-165.7889
3400.000000	104.625	-167.7202
3450.000000	104.612	-169.5003
3500.000000	104.571	-171.1065
3550.000000	104.513	-172.5427
3600.000000	104.447	-173.8245
3650.000000	104.386	-174.9711
3700.000000	104.337	-176.0092
3750.000000	104.309	-176.9787
3820.000000	104.310	-178.3141
3870.000000	104.337	-179.3105
3950.000000	104.407	178.9523
4000.000000	104.455	177.7521
4060.000000	104.505	176.1573
4120.000000	104.533	174.3429
4180.000000	104.524	172.2667
4250.000000	104.444	169.5078
4310.000000	104.302	166.9027
4370.000000	104.079	164.1665
4440.000000	103.710	160.9850
4500.000000	103.296	158.4680
4550.000000	102.885	156.6741
4620.000000	102.220	154.8624
4680.000000	101.593	154.1324
4750.000000	100.841	154.3419
4820.000000	100.129	155.6171
4870.000000	99.678	157.0427
4940.000000	99.158	159.4899
5000.000000	98.822	161.7700
5080.000000	98.509	164.7678
5150.000000	98.324	167.1924
5220.000000	98.186	169.3844
5300.000000	98.049	171.6372
5380.000000	97.911	173.7023
5450.000000	97.777	175.4287
5520.000000	97.627	177.1383
5600.000000	97.443	179.1254
5700.000000	97.211	-178.2877
5800.000000	96.997	-175.5647
5900.000000	96.815	-172.6896
6000.000000	96.672	-169.6445
6080.000000	96.590	-167.0891
6150.000000	96.545	-164.7751
6220.000000	96.526	-162.3980
6300.000000	96.538	-159.6169
6400.000000	96.606	-156.0675
6500.000000	96.735	-152.4709
6600.000000	96.929	-148.8672
6700.000000	97.190	-145.2937
6800.000000	97.525	-141.7840
6900.000000	97.939	-138.3783
7000.000000	98.441	-135.1378
7100.000000	99.038	-132.1533
7200.000000	99.740	-129.5500
7300.000000	100.558	-127.4977
7400.000000	101.489	-126.2318
7500.000000	102.509	-126.0728
7620.000000	103.768	-127.9073
7750.000000	105.007	-133.1280
7880.000000	105.890	-141.9881
8000.000000	106.220	-152.5177
8120.000000	106.017	-163.3819
8250.000000	105.255	-173.1611
8380.000000	104.101	-179.4435
8500.000000	102.880	177.9235
8620.000000	101.670	177.7555
8750.000000	100.494	179.5792
8850.000000	99.731	-178.0277
9000.000000	98.842	-173.3468
9120.000000	98.346	-168.9375
9250.000000	98.019	-163.6976
9380.000000	97.920	-158.1613
9500.000000	98.046	-152.9888
9620.000000	98.391	-147.9814
9750.000000	99.014	-143.0190
9880.000000	99.884	-138.8621
10000.000000	100.878	-136.0756
10150.000000	102.298	-134.5560
10300.000000	103.785	-135.8575
10440.000000	105.097	-140.1054
10600.000000	106.343	-148.8302
10750.000000	107.112	-160.5397
10900.000000	107.369	-174.6207
11060.000000	107.006	170.0218
11200.000000	106.178	158.4633
11380.000000	104.589	148.0578
11500.000000	103.344	143.9207
11720.000000	101.011	140.5289
11800.000000	100.206	140.1735
12060.000000	97.842	140.8130
12200.000000	96.708	142.0305
12410.000000	95.139	145.0303
12500.000000	94.512	146.7794
12650.000000	93.537	150.3052
12800.000000	92.669	154.5122
13150.000000	91.223	166.0435
13200.000000	91.093	167.7786
13400.000000	90.772	174.6275
13600.000000	90.756	-179.0626
13800.000000	91.029	-173.8573
14000.000000	91.580	-170.3941
14300.000000	92.752	-169.9580
14500.000000	93.502	-173.5729
14750.000000	94.026	177.9623
15000.000000	93.808	168.2429
15250.000000	92.835	162.4809
15500.000000	91.620	163.4034
15750.000000	91.096	167.5580
16000.000000	91.581	168.6769
16250.000000	92.580	163.9766
16500.000000	93.724	153.3138
16750.000000	94.593	136.0836
17000.000000	94.704	113.7759
17250.000000	93.844	91.3515
17500.000000	92.134	73.4803
17750.000000	89.890	61.1219
18000.000000	87.473	52.2787
18250.000000	85.180	44.2886
18500.000000	83.131	35.2532
18750.000000	81.230	24.5594
19000.000000	79.270	12.7871
19250.000000	77.090	1.0680
19500.000000	74.622	-9.7306
19750.000000	71.873	-19.5794
20000.000000	68.879	-30.1882
