* Measurement data measured by REW V5.20.13
* Source: Mic in at front panel (Pink) (Realtek(R) Audio), no input selected, L, volume: 0.250
* Format: 256k Log Swept Sine, 1 sweep at -12.0 dBFS with no timing reference
* Dated: Mar 3, 2023 1:15:20 PM
* REW Settings:
*  C-weighting compensation: Off
*  Target level: 75.0 dB
* Note: KZ ZVX Y1
* Measurement: KZ EDX Ultra Mar 3
* Smoothing: 1/12 octave
* Frequency Step: 1/48 octave
* Start Frequency: 20.000 Hz
*
* Freq(Hz)	SPL(dB)	Phase(degrees)
20.000000	107.245	23.1160
20.299999	107.243	22.3300
20.600000	107.235	21.5652
20.900000	107.223	20.8219
21.200001	107.210	20.0977
21.400000	107.202	19.6237
21.799999	107.190	18.6934
22.000000	107.185	18.2357
22.400000	107.179	17.3335
22.700001	107.175	16.6686
23.000000	107.172	16.0142
23.299999	107.170	15.3697
23.600000	107.167	14.7347
24.000000	107.163	13.9015
24.299999	107.158	13.2864
24.700001	107.148	12.4803
25.000000	107.138	11.8879
25.400000	107.121	11.1172
25.799999	107.104	10.3699
26.200001	107.086	9.6454
26.500000	107.073	9.1152
26.900000	107.053	8.4235
27.200001	107.036	7.9145
27.600000	107.012	7.2478
28.000000	106.986	6.5949
28.500000	106.955	5.7993
29.000000	106.925	5.0274
29.500000	106.896	4.2774
30.000000	106.866	3.5446
30.400000	106.843	2.9679
30.700001	106.825	2.5406
31.100000	106.803	1.9792
31.500000	106.779	1.4287
32.000000	106.747	0.7557
32.500000	106.713	0.0950
33.000000	106.679	-0.5618
33.500000	106.646	-1.2181
34.000000	106.613	-1.8693
34.500000	106.581	-2.5052
35.000000	106.549	-3.1190
35.500000	106.521	-3.7111
36.000000	106.495	-4.2867
36.500000	106.470	-4.8497
37.000000	106.443	-5.3993
37.500000	106.411	-5.9310
38.200001	106.356	-6.6428
38.700001	106.311	-7.1330
39.500000	106.232	-7.9019
40.000000	106.183	-8.3751
40.599998	106.127	-8.9333
41.200001	106.076	-9.4807
41.799999	106.028	-10.0200
42.500000	105.975	-10.6412
43.099998	105.932	-11.1630
43.700001	105.889	-11.6647
44.400002	105.837	-12.2107
45.000000	105.792	-12.6399
45.500000	105.755	-12.9766
46.200001	105.705	-13.4310
46.799999	105.661	-13.8101
47.500000	105.606	-14.2329
48.200001	105.548	-14.6387
48.700001	105.505	-14.9330
49.400002	105.443	-15.3652
50.000000	105.388	-15.7373
50.799999	105.319	-16.1909
51.500000	105.269	-16.5555
52.200001	105.228	-16.9411
53.000000	105.181	-17.4349
53.799999	105.128	-17.9492
54.500000	105.079	-18.3834
55.200001	105.029	-18.7915
56.000000	104.970	-19.2212
57.000000	104.894	-19.7172
58.000000	104.815	-20.2036
59.000000	104.731	-20.6843
60.000000	104.647	-21.1362
60.799999	104.584	-21.4716
61.500000	104.533	-21.7446
62.200001	104.484	-21.9889
63.000000	104.431	-22.2162
64.000000	104.366	-22.4104
65.000000	104.297	-22.5080
66.000000	104.219	-22.5229
67.000000	104.136	-22.4584
68.000000	104.066	-22.3517
69.000000	104.024	-22.4460
70.000000	103.977	-22.9169
71.000000	103.898	-23.5579
72.000000	103.813	-24.1320
73.000000	103.750	-24.6440
74.000000	103.710	-25.1496
75.000000	103.677	-25.6232
76.199997	103.633	-26.0803
77.500000	103.576	-26.4381
78.800003	103.510	-26.7234
80.000000	103.440	-26.9907
81.199997	103.364	-27.3002
82.500000	103.274	-27.6723
83.800003	103.181	-28.0227
85.000000	103.095	-28.2706
86.199997	103.019	-28.4544
87.500000	102.946	-28.6681
88.500000	102.890	-28.8630
90.000000	102.807	-29.1353
91.199997	102.753	-29.3219
92.500000	102.706	-29.5439
93.800003	102.655	-29.7932
95.000000	102.595	-30.0150
96.199997	102.523	-30.2189
97.500000	102.436	-30.4321
98.800003	102.350	-30.6383
100.000000	102.278	-30.8003
101.500000	102.203	-30.9265
103.000000	102.133	-30.9692
104.400002	102.054	-30.9888
106.000000	101.941	-31.0749
107.500000	101.829	-31.2693
109.000000	101.735	-31.5173
110.599998	101.663	-31.6519
112.000000	101.603	-31.5920
113.800003	101.468	-31.5172
115.000000	101.313	-31.7211
117.199997	100.895	-32.8617
118.000000	100.726	-33.2732
120.599998	100.482	-32.8231
122.000000	100.679	-32.0730
124.099998	101.085	-31.6901
125.000000	101.195	-31.6925
126.500000	101.248	-31.6857
128.000000	101.177	-31.6322
131.500000	100.917	-31.9421
132.000000	100.892	-32.0346
134.000000	100.819	-32.3721
136.000000	100.754	-32.5753
138.000000	100.665	-32.6487
140.000000	100.572	-32.6570
143.000000	100.462	-32.6630
145.000000	100.391	-32.6722
147.500000	100.285	-32.6976
150.000000	100.169	-32.7346
152.500000	100.057	-32.7239
155.000000	99.960	-32.6138
157.500000	99.891	-32.4749
160.000000	99.840	-32.3815
162.500000	99.785	-32.3268
165.000000	99.715	-32.2996
167.500000	99.624	-32.2740
170.000000	99.515	-32.2094
172.500000	99.397	-32.0985
175.000000	99.281	-31.9708
177.500000	99.177	-31.8513
180.000000	99.090	-31.7452
182.500000	99.024	-31.6510
185.000000	98.975	-31.5671
187.500000	98.935	-31.4893
190.000000	98.894	-31.4066
192.500000	98.850	-31.3096
195.000000	98.800	-31.1976
197.500000	98.744	-31.0733
200.000000	98.684	-30.9351
203.000000	98.613	-30.7529
206.000000	98.545	-30.5736
209.000000	98.473	-30.4189
212.000000	98.396	-30.2889
214.000000	98.343	-30.2051
218.000000	98.241	-30.0033
220.000000	98.193	-29.8734
224.000000	98.107	-29.5645
227.000000	98.046	-29.3210
230.000000	97.987	-29.0978
233.000000	97.930	-28.9000
236.000000	97.874	-28.7205
240.000000	97.799	-28.4985
243.000000	97.740	-28.3318
247.000000	97.660	-28.0853
250.000000	97.599	-27.8692
254.000000	97.524	-27.5319
258.000000	97.462	-27.1768
262.000000	97.408	-26.8734
265.000000	97.366	-26.6855
269.000000	97.305	-26.4440
272.000000	97.257	-26.2429
276.000000	97.195	-25.9380
280.000000	97.139	-25.6078
285.000000	97.084	-25.2093
290.000000	97.041	-24.8990
295.000000	96.993	-24.6863
300.000000	96.934	-24.4799
304.000000	96.885	-24.2812
307.000000	96.849	-24.1176
311.000000	96.802	-23.8936
315.000000	96.752	-23.6685
320.000000	96.686	-23.3695
325.000000	96.623	-23.0334
330.000000	96.565	-22.6771
335.000000	96.510	-22.3289
340.000000	96.457	-22.0020
345.000000	96.404	-21.6868
350.000000	96.356	-21.3668
355.000000	96.311	-21.0385
360.000000	96.267	-20.7064
365.000000	96.221	-20.3746
370.000000	96.173	-20.0426
375.000000	96.127	-19.7081
382.000000	96.069	-19.2347
387.000000	96.030	-18.8954
395.000000	95.971	-18.3527
400.000000	95.934	-18.0155
406.000000	95.890	-17.6198
412.000000	95.846	-17.2345
418.000000	95.802	-16.8434
425.000000	95.755	-16.3571
431.000000	95.721	-15.9225
437.000000	95.694	-15.4968
444.000000	95.667	-15.0289
450.000000	95.647	-14.6675
455.000000	95.631	-14.4107
462.000000	95.602	-14.1049
468.000000	95.569	-13.8390
475.000000	95.528	-13.4846
482.000000	95.489	-13.1025
487.000000	95.461	-12.8271
494.000000	95.418	-12.4230
500.000000	95.383	-12.0461
508.000000	95.345	-11.5327
515.000000	95.315	-11.1036
522.000000	95.283	-10.6838
530.000000	95.245	-10.1853
538.000000	95.211	-9.6655
545.000000	95.185	-9.2092
552.000000	95.162	-8.7557
560.000000	95.138	-8.2502
570.000000	95.110	-7.6456
580.000000	95.079	-7.0444
590.000000	95.045	-6.4281
600.000000	95.011	-5.7859
608.000000	94.991	-5.2658
615.000000	94.975	-4.8162
622.000000	94.960	-4.3615
630.000000	94.941	-3.8159
640.000000	94.924	-3.1022
650.000000	94.914	-2.3827
660.000000	94.916	-1.6844
670.000000	94.928	-1.0634
680.000000	94.936	-0.5196
690.000000	94.931	0.0148
700.000000	94.917	0.5983
710.000000	94.903	1.2493
720.000000	94.897	1.9404
730.000000	94.901	2.6356
740.000000	94.909	3.3170
750.000000	94.919	3.9905
762.000000	94.932	4.8210
775.000000	94.953	5.7852
788.000000	94.995	6.7977
800.000000	95.058	7.6945
812.000000	95.138	8.4650
825.000000	95.225	9.1167
838.000000	95.299	9.6194
850.000000	95.350	10.0392
862.000000	95.388	10.4838
875.000000	95.424	11.0147
885.000000	95.455	11.4511
900.000000	95.506	12.1217
912.000000	95.550	12.6656
925.000000	95.604	13.2532
938.000000	95.663	13.8167
950.000000	95.722	14.3026
962.000000	95.781	14.7612
975.000000	95.845	15.2411
988.000000	95.911	15.7108
1000.000000	95.973	16.1420
1015.000000	96.053	16.6936
1030.000000	96.143	17.2395
1044.000000	96.237	17.6827
1060.000000	96.350	18.0546
1075.000000	96.449	18.3033
1090.000000	96.542	18.5105
1106.000000	96.638	18.7081
1120.000000	96.720	18.8667
1138.000000	96.818	19.0617
1150.000000	96.879	19.1914
1172.000000	96.986	19.4391
1180.000000	97.026	19.5334
1206.000000	97.170	19.7877
1220.000000	97.251	19.8382
1241.000000	97.361	19.8156
1250.000000	97.402	19.7928
1265.000000	97.462	19.7592
1280.000000	97.515	19.7402
1315.000000	97.623	19.7618
1320.000000	97.638	19.7685
1340.000000	97.696	19.7974
1360.000000	97.747	19.8475
1380.000000	97.795	19.9528
1400.000000	97.845	20.1370
1430.000000	97.945	20.4655
1450.000000	98.023	20.6295
1475.000000	98.122	20.7963
1500.000000	98.225	20.9928
1525.000000	98.339	21.2809
1550.000000	98.465	21.7108
1575.000000	98.601	22.2811
1600.000000	98.726	22.8858
1625.000000	98.804	23.4117
1650.000000	98.822	23.8038
1675.000000	98.803	24.0201
1700.000000	98.778	24.0454
1725.000000	98.772	23.9185
1750.000000	98.796	23.7374
1775.000000	98.850	23.6089
1800.000000	98.933	23.5643
1825.000000	99.034	23.5460
1850.000000	99.140	23.5123
1875.000000	99.242	23.4723
1900.000000	99.340	23.4543
1925.000000	99.433	23.4885
1950.000000	99.527	23.5830
1975.000000	99.627	23.6982
2000.000000	99.731	23.7839
2030.000000	99.852	23.8398
2060.000000	99.966	23.8752
2090.000000	100.075	23.8992
2120.000000	100.179	23.8996
2140.000000	100.245	23.8939
2180.000000	100.374	23.9022
2200.000000	100.440	23.9058
2240.000000	100.574	23.8829
2270.000000	100.668	23.8737
2300.000000	100.762	23.9265
2330.000000	100.864	24.0582
2360.000000	100.988	24.2070
2400.000000	101.183	24.2501
2430.000000	101.337	24.0892
2470.000000	101.530	23.6287
2500.000000	101.654	23.1591
2540.000000	101.788	22.5052
2580.000000	101.902	21.9258
2620.000000	102.009	21.3976
2650.000000	102.086	21.0115
2690.000000	102.182	20.5336
2720.000000	102.254	20.2258
2760.000000	102.359	19.8529
2800.000000	102.475	19.4421
2850.000000	102.630	18.7971
2900.000000	102.779	17.9917
2950.000000	102.911	17.0845
3000.000000	103.030	16.0887
3040.000000	103.114	15.2130
3070.000000	103.169	14.5347
3110.000000	103.235	13.6508
3150.000000	103.300	12.8013
3200.000000	103.388	11.7342
3250.000000	103.476	10.5980
3300.000000	103.550	9.3850
3350.000000	103.604	8.1548
3400.000000	103.637	6.9335
3450.000000	103.646	5.7240
3500.000000	103.629	4.5702
3550.000000	103.599	3.4846
3600.000000	103.564	2.4122
3650.000000	103.525	1.2981
3700.000000	103.476	0.1453
3750.000000	103.416	-0.9960
3820.000000	103.321	-2.5233
3870.000000	103.245	-3.5247
3950.000000	103.116	-4.8813
4000.000000	103.035	-5.6146
4060.000000	102.926	-6.4549
4120.000000	102.791	-7.2554
4180.000000	102.622	-7.9822
4250.000000	102.380	-8.6985
4310.000000	102.139	-9.1348
4370.000000	101.886	-9.3900
4440.000000	101.594	-9.5268
4500.000000	101.347	-9.5465
4550.000000	101.144	-9.4917
4620.000000	100.865	-9.2985
4680.000000	100.629	-8.9926
4750.000000	100.368	-8.4358
4820.000000	100.137	-7.7094
4870.000000	99.992	-7.1309
4940.000000	99.814	-6.2684
5000.000000	99.679	-5.4904
5080.000000	99.514	-4.3635
5150.000000	99.381	-3.2426
5220.000000	99.263	-2.0104
5300.000000	99.145	-0.5367
5380.000000	99.035	0.9489
5450.000000	98.932	2.2514
5520.000000	98.820	3.6016
5600.000000	98.689	5.2446
5700.000000	98.543	7.4241
5800.000000	98.435	9.6769
5900.000000	98.365	11.9906
6000.000000	98.338	14.4259
6080.000000	98.355	16.4529
6150.000000	98.400	18.2487
6220.000000	98.473	20.0369
6300.000000	98.586	22.0693
6400.000000	98.773	24.6191
6500.000000	99.019	27.1675
6600.000000	99.331	29.6405
6700.000000	99.709	31.9699
6800.000000	100.155	34.1304
6900.000000	100.677	36.0738
7000.000000	101.280	37.6948
7100.000000	101.963	38.8727
7200.000000	102.729	39.4880
7300.000000	103.580	39.3540
7400.000000	104.498	38.1766
7500.000000	105.434	35.6149
7620.000000	106.478	30.3113
7750.000000	107.352	21.5916
7880.000000	107.783	10.3068
8000.000000	107.696	-0.9337
8120.000000	107.165	-11.2092
8250.000000	106.213	-19.9047
8380.000000	105.039	-25.6910
8500.000000	103.902	-28.7513
8620.000000	102.819	-30.1797
8750.000000	101.778	-30.5288
8850.000000	101.082	-30.2587
9000.000000	100.195	-29.2828
9120.000000	99.596	-28.0844
9250.000000	99.057	-26.3013
9380.000000	98.689	-24.2800
9500.000000	98.516	-22.8983
9620.000000	98.423	-22.3663
9750.000000	98.327	-22.6057
9880.000000	98.205	-23.4542
10000.000000	98.058	-24.6823
10150.000000	97.808	-26.7222
10300.000000	97.460	-29.1748
10440.000000	97.025	-31.6364
10600.000000	96.379	-34.2651
10750.000000	95.629	-36.1506
10900.000000	94.764	-37.1917
11060.000000	93.772	-37.2473
11200.000000	92.901	-36.5045
11380.000000	91.819	-34.7294
11500.000000	91.122	-33.1100
11720.000000	89.895	-29.2635
11800.000000	89.468	-27.5845
12060.000000	88.191	-21.2161
12200.000000	87.591	-17.3228
12410.000000	86.825	-11.0427
12500.000000	86.546	-8.2334
12650.000000	86.144	-3.4395
12800.000000	85.821	1.4544
13150.000000	85.364	13.0088
13200.000000	85.332	14.6540
13400.000000	85.278	21.1563
13600.000000	85.333	27.4564
13800.000000	85.513	33.4279
14000.000000	85.880	38.9133
14300.000000	86.921	45.6902
14500.000000	87.928	48.6788
14750.000000	89.372	49.7576
15000.000000	90.736	46.9111
15250.000000	91.695	39.8308
15500.000000	92.003	29.8439
15750.000000	91.584	19.6918
16000.000000	90.583	11.8225
16250.000000	89.355	6.9457
16500.000000	88.364	3.9778
16750.000000	87.930	0.5690
17000.000000	87.910	-6.1406
17250.000000	87.783	-17.6431
17500.000000	87.029	-31.6271
17750.000000	85.413	-42.8128
18000.000000	83.037	-47.7712
18250.000000	80.190	-47.0454
18500.000000	77.154	-42.3425
18750.000000	74.071	-34.0409
19000.000000	70.977	-21.6268
19250.000000	67.919	-5.0401
19500.000000	65.050	14.8851
19750.000000	62.679	36.6424
20000.000000	61.200	58.4270
