* Measurement data measured by REW V5.20.13
* Source: EXCL: Mic in at front panel (Pink) (Realtek(R) Audio), no input selected, L, volume: 0.250
* Format: 256k Log Swept Sine, 1 sweep at -12.0 dBFS with no timing reference
* Dated: Dec 26, 2022 6:58:54 PM
* REW Settings:
*  C-weighting compensation: Off
*  Target level: 75.0 dB
* Note: KZ ZNA R
* Measurement: KZ ZNA R
* Smoothing: 1/12 octave
* Frequency Step: 1/48 octave
* Start Frequency: 20.000 Hz
*
* Freq(Hz)	SPL(dB)	Phase(degrees)
20.000000	103.421	11.2858
20.299999	103.423	10.6046
20.600000	103.423	9.9285
20.900000	103.419	9.2651
21.200001	103.411	8.6248
21.400000	103.405	8.2145
21.799999	103.392	7.4308
22.000000	103.386	7.0536
22.400000	103.376	6.3140
22.700001	103.370	5.7604
23.000000	103.363	5.2017
23.299999	103.356	4.6406
23.600000	103.346	4.0830
24.000000	103.331	3.3543
24.299999	103.319	2.8224
24.700001	103.302	2.1295
25.000000	103.290	1.6177
25.400000	103.272	0.9427
25.799999	103.253	0.2816
26.200001	103.232	-0.3559
26.500000	103.216	-0.8157
26.900000	103.196	-1.4078
27.200001	103.182	-1.8424
27.600000	103.163	-2.4161
28.000000	103.145	-2.9836
28.500000	103.120	-3.6743
29.000000	103.096	-4.3392
29.500000	103.075	-4.9960
30.000000	103.054	-5.6703
30.400000	103.034	-6.2234
30.700001	103.016	-6.6373
31.100000	102.988	-7.1720
31.500000	102.958	-7.6763
32.000000	102.920	-8.2652
32.500000	102.884	-8.8254
33.000000	102.851	-9.3740
33.500000	102.819	-9.9160
34.000000	102.787	-10.4539
34.500000	102.756	-10.9919
35.000000	102.723	-11.5293
35.500000	102.687	-12.0542
36.000000	102.650	-12.5554
36.500000	102.613	-13.0352
37.000000	102.579	-13.5081
37.500000	102.545	-13.9860
38.200001	102.495	-14.6624
38.700001	102.458	-15.1425
39.500000	102.396	-15.9009
40.000000	102.355	-16.3673
40.599998	102.305	-16.9116
41.200001	102.255	-17.4344
41.799999	102.206	-17.9426
42.500000	102.149	-18.5252
43.099998	102.100	-19.0089
43.700001	102.050	-19.4675
44.400002	101.995	-19.9767
45.000000	101.948	-20.4083
45.500000	101.909	-20.7706
46.200001	101.850	-21.2698
46.799999	101.796	-21.6738
47.500000	101.734	-22.1174
48.200001	101.672	-22.5509
48.700001	101.627	-22.8589
49.400002	101.562	-23.2737
50.000000	101.507	-23.6015
50.799999	101.440	-24.0101
51.500000	101.388	-24.3679
52.200001	101.340	-24.7370
53.000000	101.288	-25.1664
53.799999	101.237	-25.5976
54.500000	101.192	-25.9711
55.200001	101.146	-26.3382
56.000000	101.093	-26.7568
57.000000	101.020	-27.2794
58.000000	100.940	-27.7705
59.000000	100.857	-28.2191
60.000000	100.775	-28.6349
60.799999	100.710	-28.9401
61.500000	100.657	-29.1877
62.200001	100.608	-29.4338
63.000000	100.554	-29.7385
64.000000	100.479	-30.1442
65.000000	100.394	-30.5106
66.000000	100.308	-30.8270
67.000000	100.224	-31.1317
68.000000	100.141	-31.4238
69.000000	100.064	-31.6912
70.000000	99.997	-31.9562
71.000000	99.937	-32.2386
72.000000	99.877	-32.5303
73.000000	99.814	-32.8119
74.000000	99.744	-33.0562
75.000000	99.671	-33.2562
76.199997	99.583	-33.4733
77.500000	99.494	-33.7222
78.800003	99.414	-34.0167
80.000000	99.352	-34.3593
81.199997	99.295	-34.7999
82.500000	99.226	-35.3248
83.800003	99.147	-35.7985
85.000000	99.071	-36.1677
86.199997	98.989	-36.4760
87.500000	98.895	-36.7474
88.500000	98.819	-36.9248
90.000000	98.703	-37.1774
91.199997	98.609	-37.3922
92.500000	98.511	-37.6437
93.800003	98.418	-37.8928
95.000000	98.337	-38.0884
96.199997	98.258	-38.2304
97.500000	98.169	-38.3221
98.800003	98.074	-38.3611
100.000000	97.988	-38.3811
101.500000	97.895	-38.4827
103.000000	97.815	-38.7109
104.400002	97.748	-38.9143
106.000000	97.681	-38.9879
107.500000	97.629	-38.9255
109.000000	97.584	-38.8638
110.599998	97.534	-38.8200
112.000000	97.488	-38.6383
113.800003	97.431	-37.9043
115.000000	97.387	-36.9625
117.199997	97.318	-34.3505
118.000000	97.319	-33.3824
120.599998	97.370	-32.8104
122.000000	97.272	-34.3894
124.099998	96.985	-37.0450
125.000000	96.874	-37.8950
126.500000	96.741	-38.8691
128.000000	96.649	-39.4027
131.500000	96.445	-39.7650
132.000000	96.417	-39.7913
134.000000	96.315	-39.9169
136.000000	96.226	-40.0066
138.000000	96.133	-39.9701
140.000000	96.029	-39.8265
143.000000	95.876	-39.6710
145.000000	95.788	-39.7565
147.500000	95.680	-40.0020
150.000000	95.570	-40.2075
152.500000	95.454	-40.2473
155.000000	95.342	-40.1189
157.500000	95.241	-39.9424
160.000000	95.149	-39.8097
162.500000	95.058	-39.7256
165.000000	94.965	-39.6658
167.500000	94.872	-39.5981
170.000000	94.780	-39.4911
172.500000	94.689	-39.3444
175.000000	94.599	-39.1952
177.500000	94.511	-39.0654
180.000000	94.428	-38.9513
182.500000	94.350	-38.8430
185.000000	94.276	-38.7275
187.500000	94.201	-38.6113
190.000000	94.118	-38.5120
192.500000	94.025	-38.4195
195.000000	93.931	-38.3162
197.500000	93.843	-38.1923
200.000000	93.760	-38.0374
203.000000	93.666	-37.8137
206.000000	93.578	-37.5811
209.000000	93.495	-37.3694
212.000000	93.411	-37.1808
214.000000	93.352	-37.0551
218.000000	93.233	-36.7596
220.000000	93.175	-36.5861
224.000000	93.068	-36.2253
227.000000	92.993	-35.9696
230.000000	92.919	-35.7311
233.000000	92.847	-35.5057
236.000000	92.775	-35.2899
240.000000	92.682	-35.0088
243.000000	92.610	-34.7935
247.000000	92.512	-34.4836
250.000000	92.436	-34.2179
254.000000	92.339	-33.8049
258.000000	92.256	-33.3713
262.000000	92.182	-32.9974
265.000000	92.127	-32.7593
269.000000	92.048	-32.4468
272.000000	91.988	-32.1852
276.000000	91.910	-31.7946
280.000000	91.840	-31.3815
285.000000	91.764	-30.8828
290.000000	91.698	-30.4717
295.000000	91.627	-30.1588
300.000000	91.543	-29.8542
304.000000	91.473	-29.5761
307.000000	91.421	-29.3502
311.000000	91.353	-29.0386
315.000000	91.286	-28.7214
320.000000	91.201	-28.3059
325.000000	91.118	-27.8558
330.000000	91.041	-27.3848
335.000000	90.970	-26.9164
340.000000	90.902	-26.4652
345.000000	90.834	-26.0270
350.000000	90.766	-25.5864
355.000000	90.700	-25.1371
360.000000	90.636	-24.6815
365.000000	90.573	-24.2218
370.000000	90.512	-23.7592
375.000000	90.454	-23.2941
382.000000	90.375	-22.6431
387.000000	90.321	-22.1807
395.000000	90.239	-21.4426
400.000000	90.190	-20.9807
406.000000	90.134	-20.4316
412.000000	90.079	-19.8911
418.000000	90.024	-19.3447
425.000000	89.961	-18.6769
431.000000	89.914	-18.0851
437.000000	89.872	-17.5013
444.000000	89.831	-16.8481
450.000000	89.801	-16.3273
455.000000	89.777	-15.9374
462.000000	89.736	-15.4457
468.000000	89.693	-15.0212
475.000000	89.639	-14.4819
482.000000	89.588	-13.9141
487.000000	89.552	-13.5052
494.000000	89.500	-12.9142
500.000000	89.458	-12.3775
508.000000	89.409	-11.6519
515.000000	89.370	-11.0386
522.000000	89.331	-10.4353
530.000000	89.287	-9.7272
538.000000	89.246	-8.9984
545.000000	89.214	-8.3607
552.000000	89.186	-7.7277
560.000000	89.156	-7.0186
570.000000	89.121	-6.1589
580.000000	89.084	-5.3010
590.000000	89.047	-4.4274
600.000000	89.013	-3.5264
608.000000	88.989	-2.7957
615.000000	88.970	-2.1575
622.000000	88.951	-1.5098
630.000000	88.930	-0.7386
640.000000	88.913	0.2621
650.000000	88.908	1.2725
660.000000	88.917	2.2634
670.000000	88.936	3.1744
680.000000	88.954	3.9981
690.000000	88.965	4.7924
700.000000	88.971	5.6038
710.000000	88.979	6.4415
720.000000	88.992	7.2861
730.000000	89.007	8.1273
740.000000	89.024	8.9692
750.000000	89.044	9.8154
762.000000	89.072	10.8376
775.000000	89.109	11.9492
788.000000	89.153	13.0588
800.000000	89.200	14.0911
812.000000	89.258	15.1279
825.000000	89.338	16.1960
838.000000	89.424	17.1459
850.000000	89.498	17.9445
862.000000	89.566	18.7244
875.000000	89.639	19.5801
885.000000	89.696	20.2466
900.000000	89.788	21.2394
912.000000	89.864	22.0278
925.000000	89.953	22.8716
938.000000	90.048	23.6843
950.000000	90.139	24.3944
962.000000	90.230	25.0728
975.000000	90.329	25.7866
988.000000	90.428	26.4863
1000.000000	90.521	27.1265
1015.000000	90.643	27.9353
1030.000000	90.776	28.7344
1044.000000	90.913	29.4124
1060.000000	91.073	30.0513
1075.000000	91.216	30.5488
1090.000000	91.351	31.0023
1106.000000	91.491	31.4597
1120.000000	91.610	31.8427
1138.000000	91.759	32.3217
1150.000000	91.857	32.6380
1172.000000	92.039	33.2216
1180.000000	92.107	33.4356
1206.000000	92.342	34.0673
1220.000000	92.472	34.3127
1241.000000	92.657	34.5695
1250.000000	92.731	34.6612
1265.000000	92.849	34.8107
1280.000000	92.964	34.9641
1315.000000	93.226	35.3408
1320.000000	93.264	35.3922
1340.000000	93.412	35.5836
1360.000000	93.556	35.7670
1380.000000	93.698	35.9733
1400.000000	93.845	36.2230
1430.000000	94.090	36.5735
1450.000000	94.262	36.6937
1475.000000	94.472	36.7277
1500.000000	94.673	36.6873
1525.000000	94.868	36.6123
1550.000000	95.062	36.5301
1575.000000	95.264	36.4248
1600.000000	95.474	36.2031
1625.000000	95.678	35.8127
1650.000000	95.866	35.3013
1675.000000	96.038	34.7250
1700.000000	96.196	34.1042
1725.000000	96.341	33.4394
1750.000000	96.469	32.7581
1775.000000	96.584	32.1082
1800.000000	96.698	31.4929
1825.000000	96.812	30.8533
1850.000000	96.919	30.1555
1875.000000	97.015	29.4175
1900.000000	97.098	28.6773
1925.000000	97.171	27.9745
1950.000000	97.242	27.3240
1975.000000	97.317	26.6898
2000.000000	97.393	26.0206
2030.000000	97.477	25.1578
2060.000000	97.549	24.2594
2090.000000	97.611	23.3491
2120.000000	97.662	22.4413
2140.000000	97.690	21.8552
2180.000000	97.739	20.7657
2200.000000	97.766	20.2405
2240.000000	97.820	19.1477
2270.000000	97.851	18.2864
2300.000000	97.870	17.4288
2330.000000	97.882	16.6104
2360.000000	97.894	15.8159
2400.000000	97.909	14.7156
2430.000000	97.913	13.8430
2470.000000	97.898	12.6446
2500.000000	97.870	11.7457
2540.000000	97.809	10.6151
2580.000000	97.732	9.6146
2620.000000	97.647	8.7060
2650.000000	97.577	8.0689
2690.000000	97.470	7.3163
2720.000000	97.385	6.8551
2760.000000	97.273	6.3582
2800.000000	97.168	5.9321
2850.000000	97.036	5.4549
2900.000000	96.893	5.0652
2950.000000	96.739	4.8607
3000.000000	96.588	4.8668
3040.000000	96.475	4.9841
3070.000000	96.393	5.1404
3110.000000	96.290	5.4604
3150.000000	96.205	5.8939
3200.000000	96.127	6.5172
3250.000000	96.078	7.1534
3300.000000	96.052	7.7751
3350.000000	96.046	8.3989
3400.000000	96.067	8.9825
3450.000000	96.108	9.4576
3500.000000	96.162	9.8221
3550.000000	96.228	10.0793
3600.000000	96.304	10.1939
3650.000000	96.381	10.1413
3700.000000	96.450	9.9474
3750.000000	96.508	9.6691
3820.000000	96.574	9.1707
3870.000000	96.609	8.7578
3950.000000	96.654	8.0635
4000.000000	96.681	7.5666
4060.000000	96.708	6.8369
4120.000000	96.716	5.9692
4180.000000	96.699	5.0084
4250.000000	96.640	3.8280
4310.000000	96.555	2.8586
4370.000000	96.449	1.9744
4440.000000	96.307	1.0159
4500.000000	96.168	0.2385
4550.000000	96.039	-0.3681
4620.000000	95.838	-1.1493
4680.000000	95.646	-1.7326
4750.000000	95.402	-2.2847
4820.000000	95.141	-2.7239
4870.000000	94.941	-2.9773
4940.000000	94.636	-3.2028
5000.000000	94.351	-3.2209
5080.000000	93.940	-2.8868
5150.000000	93.567	-2.1833
5220.000000	93.201	-1.1172
5300.000000	92.807	0.4487
5380.000000	92.442	2.2921
5450.000000	92.144	4.0940
5520.000000	91.864	6.0884
5600.000000	91.574	8.6100
5700.000000	91.267	12.0468
5800.000000	91.025	15.6803
5900.000000	90.834	19.4617
6000.000000	90.695	23.4379
6080.000000	90.629	26.7512
6150.000000	90.607	29.7129
6220.000000	90.618	32.7033
6300.000000	90.667	36.1512
6400.000000	90.784	40.5309
6500.000000	90.974	44.9817
6600.000000	91.243	49.4471
6700.000000	91.594	53.8849
6800.000000	92.034	58.2938
6900.000000	92.579	62.6411
7000.000000	93.244	66.8323
7100.000000	94.037	70.7657
7200.000000	94.975	74.3625
7300.000000	96.082	77.4950
7400.000000	97.370	79.9185
7500.000000	98.825	81.2741
7620.000000	100.717	80.8124
7750.000000	102.749	76.5171
7880.000000	104.438	67.0074
8000.000000	105.414	53.8581
8120.000000	105.686	38.9018
8250.000000	105.242	24.4720
8380.000000	104.286	14.3783
8500.000000	103.230	9.0031
8620.000000	102.228	6.5226
8750.000000	101.369	5.9984
8850.000000	100.939	6.4855
9000.000000	100.734	7.5621
9120.000000	100.918	7.7846
9250.000000	101.355	6.5684
9380.000000	101.903	3.3121
9500.000000	102.388	-1.8054
9620.000000	102.744	-9.0109
9750.000000	102.875	-18.8179
9880.000000	102.657	-29.8400
10000.000000	102.112	-40.0176
10150.000000	100.975	-51.1649
10300.000000	99.416	-59.2877
10440.000000	97.702	-63.7334
10600.000000	95.597	-65.3617
10750.000000	93.631	-64.1600
10900.000000	91.792	-61.0131
11060.000000	90.063	-56.1549
11200.000000	88.793	-51.0695
11380.000000	87.526	-43.8840
11500.000000	86.918	-38.9138
11720.000000	86.327	-30.0182
11800.000000	86.288	-27.0373
12060.000000	86.802	-19.5707
12200.000000	87.401	-17.9264
12410.000000	88.405	-20.4056
12500.000000	88.754	-23.6154
12650.000000	89.063	-31.5771
12800.000000	88.905	-41.4260
13150.000000	86.606	-59.3915
13200.000000	86.104	-60.5877
13400.000000	83.891	-61.8503
13600.000000	81.623	-58.8049
13800.000000	79.611	-53.2637
14000.000000	78.053	-46.5613
14300.000000	76.757	-36.2097
14500.000000	76.632	-30.0626
14750.000000	77.316	-24.4432
15000.000000	78.773	-22.7876
15250.000000	80.575	-27.2999
15500.000000	82.174	-39.6270
15750.000000	83.155	-58.7832
16000.000000	83.445	-80.6911
16250.000000	83.337	-101.6857
16500.000000	83.207	-121.5672
16750.000000	83.119	-142.0931
17000.000000	82.815	-163.7687
17250.000000	82.068	175.1130
17500.000000	80.853	156.7504
17750.000000	79.269	142.4984
18000.000000	77.430	133.2697
18250.000000	75.588	128.6580
18500.000000	74.165	124.9202
18750.000000	73.097	118.7004
19000.000000	71.833	111.9568
19250.000000	70.143	108.2797
19500.000000	68.166	108.7194
19750.000000	66.161	112.1710
20000.000000	64.378	116.8196
