* Measurement data measured by REW V5.20.11
* Source: Mic in at front panel (Pink) (Realtek(R) Audio), MICROPHONE (Master Volume), L, volume: 0.250
* Format: 256k Log Swept Sine, 1 sweep at -12.0 dBFS with no timing reference
* Dated: Aug 29, 2022 11:40:13 PM
* REW Settings:
*  C-weighting compensation: Off
*  Target level: 75.0 dB
* Note: D13 Silver L
* Measurement: D13 Silver L
* Smoothing: 1/12 octave
* Frequency Step: 1/48 octave
* Start Frequency: 20.000 Hz
*
* Freq(Hz)	SPL(dB)	Phase(degrees)
20.000000	111.491	-155.8996
20.299999	111.496	-156.5496
20.600000	111.501	-157.1892
20.900000	111.504	-157.8165
21.200001	111.506	-158.4298
21.400000	111.508	-158.8306
21.799999	111.510	-159.6133
22.000000	111.511	-159.9956
22.400000	111.513	-160.7434
22.700001	111.515	-161.2902
23.000000	111.517	-161.8261
23.299999	111.519	-162.3524
23.600000	111.521	-162.8703
24.000000	111.523	-163.5496
24.299999	111.525	-164.0509
24.700001	111.526	-164.7075
25.000000	111.526	-165.1903
25.400000	111.525	-165.8215
25.799999	111.524	-166.4408
26.200001	111.521	-167.0505
26.500000	111.517	-167.5010
26.900000	111.509	-168.0882
27.200001	111.502	-168.5138
27.600000	111.490	-169.0553
28.000000	111.477	-169.5636
28.500000	111.463	-170.1574
29.000000	111.453	-170.7220
29.500000	111.448	-171.2786
30.000000	111.445	-171.8454
30.400000	111.444	-172.3115
30.700001	111.443	-172.6679
31.100000	111.439	-173.1475
31.500000	111.434	-173.6263
32.000000	111.426	-174.2157
32.500000	111.416	-174.7918
33.000000	111.406	-175.3569
33.500000	111.395	-175.9133
34.000000	111.383	-176.4594
34.500000	111.369	-176.9915
35.000000	111.355	-177.5081
35.500000	111.340	-178.0114
36.000000	111.325	-178.5048
36.500000	111.309	-178.9896
37.000000	111.292	-179.4649
37.500000	111.274	-179.9288
38.200001	111.247	179.4426
38.700001	111.227	179.0081
39.500000	111.194	178.3350
40.000000	111.173	177.9265
40.599998	111.147	177.4476
41.200001	111.121	176.9800
41.799999	111.095	176.5234
42.500000	111.065	176.0046
43.099998	111.038	175.5719
43.700001	111.012	175.1494
44.400002	110.980	174.6670
45.000000	110.952	174.2619
45.500000	110.928	173.9316
46.200001	110.893	173.4825
46.799999	110.862	173.1103
47.500000	110.825	172.6877
48.200001	110.787	172.2742
48.700001	110.759	171.9839
49.400002	110.719	171.5856
50.000000	110.683	171.2531
50.799999	110.636	170.8248
51.500000	110.594	170.4644
52.200001	110.552	170.1168
53.000000	110.504	169.7382
53.799999	110.457	169.3854
54.500000	110.417	169.0992
55.200001	110.378	168.8320
56.000000	110.337	168.5459
57.000000	110.289	168.2076
58.000000	110.245	167.8794
59.000000	110.205	167.5475
60.000000	110.169	167.1916
60.799999	110.140	166.8840
61.500000	110.113	166.6031
62.200001	110.084	166.3178
63.000000	110.049	165.9944
64.000000	110.003	165.6063
65.000000	109.954	165.2479
66.000000	109.906	164.9210
67.000000	109.860	164.6161
68.000000	109.816	164.3228
69.000000	109.775	164.0338
70.000000	109.734	163.7431
71.000000	109.695	163.4462
72.000000	109.656	163.1420
73.000000	109.616	162.8353
74.000000	109.575	162.5317
75.000000	109.534	162.2291
76.199997	109.484	161.8599
77.500000	109.428	161.4590
78.800003	109.371	161.0640
80.000000	109.317	160.6965
81.199997	109.263	160.3180
82.500000	109.200	159.8988
83.800003	109.130	159.4872
85.000000	109.061	159.1344
86.199997	108.988	158.8226
87.500000	108.907	158.5350
88.500000	108.845	158.3448
90.000000	108.755	158.0952
91.199997	108.686	157.9125
92.500000	108.614	157.7224
93.800003	108.544	157.5383
95.000000	108.481	157.3763
96.199997	108.418	157.2262
97.500000	108.350	157.0807
98.800003	108.279	156.9549
100.000000	108.212	156.8568
101.500000	108.126	156.7598
103.000000	108.043	156.6908
104.400002	107.971	156.6556
106.000000	107.894	156.6611
107.500000	107.828	156.7100
109.000000	107.768	156.7789
110.599998	107.711	156.8330
112.000000	107.670	156.8366
113.800003	107.630	156.7995
115.000000	107.609	156.7919
117.199997	107.578	156.8992
118.000000	107.568	156.9581
120.599998	107.513	156.9323
122.000000	107.450	156.7700
124.099998	107.337	156.5078
125.000000	107.293	156.4003
126.500000	107.230	156.2318
128.000000	107.174	156.0928
131.500000	107.044	155.8909
132.000000	107.025	155.8644
134.000000	106.953	155.7426
136.000000	106.890	155.6358
138.000000	106.834	155.5953
140.000000	106.776	155.6008
143.000000	106.665	155.6075
145.000000	106.586	155.6265
147.500000	106.505	155.6550
150.000000	106.428	155.6829
152.500000	106.336	155.7526
155.000000	106.237	155.8452
157.500000	106.149	155.9382
160.000000	106.079	156.0250
162.500000	106.016	156.0986
165.000000	105.947	156.1550
167.500000	105.871	156.2034
170.000000	105.790	156.2807
172.500000	105.710	156.4110
175.000000	105.636	156.5791
177.500000	105.569	156.7519
180.000000	105.508	156.9094
182.500000	105.449	157.0512
185.000000	105.390	157.1865
187.500000	105.331	157.3229
190.000000	105.274	157.4645
192.500000	105.217	157.6104
195.000000	105.159	157.7532
197.500000	105.099	157.8914
200.000000	105.037	158.0370
203.000000	104.969	158.2262
206.000000	104.910	158.4072
209.000000	104.853	158.5723
212.000000	104.791	158.7379
214.000000	104.746	158.8573
218.000000	104.652	159.1389
220.000000	104.606	159.3018
224.000000	104.526	159.6410
227.000000	104.473	159.8870
230.000000	104.422	160.1250
233.000000	104.371	160.3582
236.000000	104.321	160.5857
240.000000	104.252	160.8781
243.000000	104.197	161.0952
247.000000	104.121	161.4059
250.000000	104.063	161.6733
254.000000	103.991	162.0835
258.000000	103.932	162.5125
262.000000	103.884	162.8907
265.000000	103.847	163.1376
269.000000	103.793	163.4623
272.000000	103.751	163.7267
276.000000	103.698	164.1105
280.000000	103.651	164.5129
285.000000	103.604	165.0021
290.000000	103.567	165.4093
295.000000	103.523	165.7215
300.000000	103.468	166.0265
304.000000	103.420	166.3052
307.000000	103.385	166.5305
311.000000	103.339	166.8378
315.000000	103.294	167.1462
320.000000	103.236	167.5488
325.000000	103.180	167.9889
330.000000	103.130	168.4503
335.000000	103.086	168.9041
340.000000	103.044	169.3360
345.000000	103.003	169.7544
350.000000	102.960	170.1759
355.000000	102.919	170.6057
360.000000	102.880	171.0405
365.000000	102.843	171.4772
370.000000	102.806	171.9148
375.000000	102.772	172.3538
382.000000	102.726	172.9704
387.000000	102.696	173.4110
395.000000	102.650	174.1167
400.000000	102.624	174.5566
406.000000	102.595	175.0756
412.000000	102.566	175.5827
418.000000	102.537	176.0941
425.000000	102.504	176.7197
431.000000	102.482	177.2732
437.000000	102.466	177.8171
444.000000	102.455	178.4222
450.000000	102.449	178.9008
455.000000	102.445	179.2551
462.000000	102.432	179.6966
468.000000	102.412	-179.9224
475.000000	102.385	-179.4352
482.000000	102.360	-178.9216
487.000000	102.343	-178.5528
494.000000	102.317	-178.0188
500.000000	102.297	-177.5314
508.000000	102.277	-176.8717
515.000000	102.263	-176.3159
522.000000	102.249	-175.7707
530.000000	102.231	-175.1306
538.000000	102.218	-174.4709
545.000000	102.210	-173.8936
552.000000	102.205	-173.3206
560.000000	102.202	-172.6806
570.000000	102.200	-171.9100
580.000000	102.196	-171.1449
590.000000	102.192	-170.3673
600.000000	102.191	-169.5673
608.000000	102.194	-168.9230
615.000000	102.197	-168.3659
622.000000	102.201	-167.8048
630.000000	102.206	-167.1391
640.000000	102.219	-166.2778
650.000000	102.243	-165.4139
660.000000	102.279	-164.5750
670.000000	102.324	-163.8182
680.000000	102.365	-163.1475
690.000000	102.398	-162.5035
700.000000	102.426	-161.8401
710.000000	102.455	-161.1480
720.000000	102.487	-160.4471
730.000000	102.522	-159.7484
740.000000	102.558	-159.0492
750.000000	102.597	-158.3465
762.000000	102.648	-157.4988
775.000000	102.709	-156.5802
788.000000	102.776	-155.6674
800.000000	102.844	-154.8209
812.000000	102.924	-153.9757
825.000000	103.027	-153.1266
838.000000	103.136	-152.4146
850.000000	103.232	-151.8626
862.000000	103.322	-151.3706
875.000000	103.410	-150.8939
885.000000	103.470	-150.5682
900.000000	103.533	-150.0962
912.000000	103.557	-149.5926
925.000000	103.580	-148.7922
938.000000	103.628	-147.7937
950.000000	103.705	-146.8608
962.000000	103.801	-146.0188
975.000000	103.915	-145.2230
988.000000	104.031	-144.5148
1000.000000	104.138	-143.8988
1015.000000	104.276	-143.1305
1030.000000	104.426	-142.3696
1044.000000	104.582	-141.7329
1060.000000	104.764	-141.1669
1075.000000	104.928	-140.7712
1090.000000	105.081	-140.4435
1106.000000	105.236	-140.1331
1120.000000	105.366	-139.8829
1138.000000	105.529	-139.5750
1150.000000	105.635	-139.3709
1172.000000	105.829	-138.9856
1180.000000	105.902	-138.8411
1206.000000	106.150	-138.4262
1220.000000	106.287	-138.2937
1241.000000	106.482	-138.2044
1250.000000	106.561	-138.1846
1265.000000	106.687	-138.1554
1280.000000	106.809	-138.1232
1315.000000	107.090	-138.0346
1320.000000	107.129	-138.0250
1340.000000	107.287	-138.0014
1360.000000	107.440	-137.9858
1380.000000	107.591	-137.9456
1400.000000	107.747	-137.8602
1430.000000	108.007	-137.7583
1450.000000	108.190	-137.8107
1475.000000	108.413	-138.0027
1500.000000	108.628	-138.2776
1525.000000	108.837	-138.5931
1550.000000	109.046	-138.9231
1575.000000	109.263	-139.2831
1600.000000	109.490	-139.7648
1625.000000	109.713	-140.4205
1650.000000	109.924	-141.2070
1675.000000	110.122	-142.0769
1700.000000	110.310	-143.0200
1725.000000	110.487	-144.0452
1750.000000	110.651	-145.1331
1775.000000	110.802	-146.2433
1800.000000	110.950	-147.3791
1825.000000	111.096	-148.6063
1850.000000	111.230	-149.9610
1875.000000	111.344	-151.4223
1900.000000	111.435	-152.9465
1925.000000	111.504	-154.4875
1950.000000	111.555	-156.0210
1975.000000	111.593	-157.5678
2000.000000	111.614	-159.1579
2030.000000	111.605	-161.0994
2060.000000	111.556	-162.9940
2090.000000	111.470	-164.7544
2120.000000	111.350	-166.3064
2140.000000	111.256	-167.1852
2180.000000	111.059	-168.5206
2200.000000	110.969	-169.0194
2240.000000	110.813	-169.8610
2270.000000	110.710	-170.4451
2300.000000	110.610	-171.0038
2330.000000	110.509	-171.5107
2360.000000	110.409	-171.9522
2400.000000	110.275	-172.4289
2430.000000	110.178	-172.6744
2470.000000	110.065	-172.8628
2500.000000	109.998	-172.9625
2540.000000	109.927	-173.1064
2580.000000	109.872	-173.2866
2620.000000	109.832	-173.5630
2650.000000	109.803	-173.8616
2690.000000	109.755	-174.3596
2720.000000	109.709	-174.7677
2760.000000	109.634	-175.3213
2800.000000	109.542	-175.8631
2850.000000	109.401	-176.4535
2900.000000	109.236	-176.8610
2950.000000	109.060	-176.9956
3000.000000	108.895	-176.8712
3040.000000	108.778	-176.6526
3070.000000	108.697	-176.4326
3110.000000	108.605	-176.0687
3150.000000	108.534	-175.6702
3200.000000	108.473	-175.2455
3250.000000	108.424	-174.9819
3300.000000	108.361	-174.8251
3350.000000	108.280	-174.6180
3400.000000	108.192	-174.2636
3450.000000	108.111	-173.7464
3500.000000	108.048	-173.0654
3550.000000	108.020	-172.2858
3600.000000	108.031	-171.5435
3650.000000	108.070	-170.9505
3700.000000	108.121	-170.5306
3750.000000	108.175	-170.2411
3820.000000	108.249	-170.0036
3870.000000	108.300	-169.9133
3950.000000	108.387	-169.8180
4000.000000	108.455	-169.8382
4060.000000	108.548	-170.0441
4120.000000	108.637	-170.4789
4180.000000	108.713	-171.1253
4250.000000	108.772	-172.1019
4310.000000	108.793	-173.0379
4370.000000	108.792	-174.0140
4440.000000	108.767	-175.2293
4500.000000	108.720	-176.3450
4550.000000	108.659	-177.3032
4620.000000	108.535	-178.6430
4680.000000	108.391	-179.7158
4750.000000	108.188	179.2119
4820.000000	107.962	178.3361
4870.000000	107.788	177.8051
4940.000000	107.528	177.1758
5000.000000	107.286	176.7370
5080.000000	106.922	176.3491
5150.000000	106.558	176.3214
5220.000000	106.147	176.7797
5300.000000	105.633	178.3104
5380.000000	105.171	-178.7260
5450.000000	104.950	-175.3789
5520.000000	104.935	-172.3055
5600.000000	105.043	-169.8566
5700.000000	105.160	-168.0143
5800.000000	105.204	-166.5921
5900.000000	105.212	-165.1185
6000.000000	105.222	-163.4745
6080.000000	105.250	-162.0738
6150.000000	105.294	-160.8388
6220.000000	105.355	-159.6320
6300.000000	105.439	-158.2939
6400.000000	105.567	-156.6515
6500.000000	105.725	-155.0317
6600.000000	105.918	-153.4671
6700.000000	106.144	-151.9739
6800.000000	106.407	-150.5238
6900.000000	106.722	-149.1178
7000.000000	107.102	-147.8227
7100.000000	107.554	-146.7262
7200.000000	108.089	-145.9127
7300.000000	108.715	-145.5249
7400.000000	109.427	-145.8138
7500.000000	110.188	-147.1080
7620.000000	111.072	-150.4952
7750.000000	111.840	-157.0800
7880.000000	112.284	-167.0812
8000.000000	112.388	-178.7838
8120.000000	112.206	168.8115
8250.000000	111.650	157.0025
8380.000000	110.684	148.6048
8500.000000	109.499	144.1017
8620.000000	108.178	142.1512
8750.000000	106.748	142.1391
8850.000000	105.716	143.2244
9000.000000	104.337	146.1520
9120.000000	103.408	149.2665
9250.000000	102.582	153.1110
9380.000000	101.938	157.2267
9500.000000	101.498	161.0877
9620.000000	101.192	164.8754
9750.000000	100.996	168.8193
9880.000000	100.935	172.5285
10000.000000	100.996	175.6570
10150.000000	101.233	179.0277
10300.000000	101.651	-178.4565
10440.000000	102.189	-177.2597
10600.000000	102.918	-177.8118
10750.000000	103.609	179.2236
10900.000000	104.160	173.4857
11060.000000	104.421	164.5614
11200.000000	104.263	155.3802
11380.000000	103.462	144.0581
11500.000000	102.584	138.0959
11720.000000	100.469	131.9456
11800.000000	99.604	131.2293
12060.000000	96.740	133.3322
12200.000000	95.290	136.5445
12410.000000	93.365	143.1245
12500.000000	92.653	146.3798
12650.000000	91.629	152.1255
12800.000000	90.808	158.0205
13150.000000	89.542	171.2975
13200.000000	89.419	173.0976
13400.000000	89.035	-179.9934
13600.000000	88.790	-173.5594
13800.000000	88.650	-167.4836
14000.000000	88.622	-161.5413
14300.000000	88.931	-152.8029
14500.000000	89.473	-147.5983
14750.000000	90.530	-143.0751
15000.000000	91.793	-142.4346
15250.000000	92.898	-146.9513
15500.000000	93.515	-156.1825
15750.000000	93.485	-167.6911
16000.000000	92.882	-178.7330
16250.000000	91.943	171.4110
16500.000000	90.833	161.5798
16750.000000	89.466	151.4483
17000.000000	87.622	143.2505
17250.000000	85.213	139.9612
17500.000000	82.370	142.3254
17750.000000	79.344	148.8750
18000.000000	76.373	158.1367
18250.000000	73.585	169.7495
18500.000000	71.058	-176.2986
18750.000000	68.938	-160.7649
19000.000000	67.412	-145.1239
19250.000000	66.498	-130.6724
19500.000000	65.989	-117.9301
19750.000000	65.626	-106.6356
20000.000000	65.237	-95.9830
