* Measurement data measured by REW V5.20.13
* Source: EXCL: Mic in at front panel (Pink) (Realtek(R) Audio), MICROPHONE (Master Volume), L, volume: 0.250
* Format: 256k Log Swept Sine, 1 sweep at -12.0 dBFS with no timing reference
* Dated: Jan 20, 2023 2:10:40 AM
* REW Settings:
*  C-weighting compensation: Off
*  Target level: 75.0 dB
* Note: Joyodio Pauis L
* Measurement: KZ EDX Ultra Jan 20
* Smoothing: 1/12 octave
* Frequency Step: 1/48 octave
* Start Frequency: 20.000 Hz
*
* Freq(Hz)	SPL(dB)	Phase(degrees)
20.000000	87.630	33.0538
20.299999	87.665	32.3485
20.600000	87.700	31.6530
20.900000	87.734	30.9655
21.200001	87.767	30.2845
21.400000	87.788	29.8321
21.799999	87.829	28.9275
22.000000	87.847	28.4743
22.400000	87.879	27.5675
22.700001	87.899	26.8938
23.000000	87.915	26.2336
23.299999	87.929	25.5911
23.600000	87.940	24.9651
24.000000	87.951	24.1507
24.299999	87.956	23.5530
24.700001	87.958	22.7839
25.000000	87.954	22.2469
25.400000	87.946	21.6105
25.799999	87.943	21.0726
26.200001	87.954	20.5939
26.500000	87.974	20.2261
26.900000	88.011	19.6649
27.200001	88.040	19.1667
27.600000	88.071	18.4056
28.000000	88.086	17.5869
28.500000	88.081	16.5906
29.000000	88.062	15.7090
29.500000	88.041	14.9461
30.000000	88.029	14.2527
30.400000	88.026	13.7140
30.700001	88.026	13.3097
31.100000	88.029	12.7653
31.500000	88.032	12.2146
32.000000	88.034	11.5245
32.500000	88.034	10.8479
33.000000	88.030	10.2037
33.500000	88.024	9.5995
34.000000	88.019	9.0254
34.500000	88.013	8.4608
35.000000	88.005	7.8932
35.500000	87.991	7.3268
36.000000	87.971	6.7769
36.500000	87.947	6.2531
37.000000	87.922	5.7488
37.500000	87.899	5.2472
38.200001	87.867	4.5248
38.700001	87.842	3.9985
39.500000	87.800	3.1934
40.000000	87.776	2.7466
40.599998	87.759	2.2736
41.200001	87.760	1.8196
41.799999	87.776	1.3047
42.500000	87.792	0.5805
43.099998	87.786	-0.0742
43.700001	87.763	-0.6517
44.400002	87.728	-1.1899
45.000000	87.699	-1.5923
45.500000	87.673	-1.9252
46.200001	87.629	-2.3880
46.799999	87.583	-2.7639
47.500000	87.522	-3.1555
48.200001	87.459	-3.4487
48.700001	87.424	-3.5873
49.400002	87.403	-3.7693
50.000000	87.408	-4.0453
50.799999	87.415	-4.6553
51.500000	87.399	-5.2769
52.200001	87.366	-5.8287
53.000000	87.326	-6.3445
53.799999	87.290	-6.7936
54.500000	87.259	-7.1580
55.200001	87.230	-7.5040
56.000000	87.200	-7.8896
57.000000	87.164	-8.3727
58.000000	87.131	-8.8615
59.000000	87.098	-9.3536
60.000000	87.062	-9.8251
60.799999	87.030	-10.1759
61.500000	87.000	-10.4723
62.200001	86.964	-10.7643
63.000000	86.913	-11.0826
64.000000	86.836	-11.4205
65.000000	86.752	-11.6317
66.000000	86.687	-11.6991
67.000000	86.665	-11.7932
68.000000	86.673	-12.1366
69.000000	86.676	-12.6884
70.000000	86.667	-13.2842
71.000000	86.649	-13.8427
72.000000	86.624	-14.3328
73.000000	86.592	-14.7523
74.000000	86.551	-15.1096
75.000000	86.503	-15.4202
76.199997	86.439	-15.7709
77.500000	86.370	-16.1780
78.800003	86.315	-16.6648
80.000000	86.284	-17.2160
81.199997	86.270	-17.8766
82.500000	86.251	-18.6771
83.800003	86.198	-19.3738
85.000000	86.121	-19.6841
86.199997	86.049	-19.7262
87.500000	85.980	-19.6931
88.500000	85.932	-19.6608
90.000000	85.874	-19.6516
91.199997	85.838	-19.7413
92.500000	85.796	-19.9091
93.800003	85.750	-20.1305
95.000000	85.700	-20.4092
96.199997	85.634	-20.7200
97.500000	85.550	-20.9214
98.800003	85.482	-20.8479
100.000000	85.458	-20.6746
101.500000	85.450	-20.6941
103.000000	85.403	-21.0902
104.400002	85.312	-21.6656
106.000000	85.199	-22.3621
107.500000	85.127	-22.8923
109.000000	85.092	-23.1984
110.599998	85.058	-23.4724
112.000000	85.009	-24.0222
113.800003	85.031	-25.4709
115.000000	85.261	-26.8544
117.199997	86.311	-29.8544
118.000000	86.768	-30.9910
120.599998	87.609	-32.3312
122.000000	87.619	-29.9435
124.099998	87.423	-25.6254
125.000000	87.234	-24.9766
126.500000	86.742	-25.7134
128.000000	86.255	-27.8682
131.500000	86.435	-34.4348
132.000000	86.507	-35.1233
134.000000	86.431	-35.5201
136.000000	85.843	-31.8929
138.000000	85.218	-27.7909
140.000000	84.760	-26.1746
143.000000	84.272	-26.5072
145.000000	84.355	-27.7777
147.500000	84.980	-33.4473
150.000000	85.456	-41.0024
152.500000	85.217	-41.9357
155.000000	84.715	-35.2068
157.500000	84.469	-28.5806
160.000000	84.377	-25.9137
162.500000	84.260	-26.0497
165.000000	84.092	-26.8620
167.500000	83.910	-27.4457
170.000000	83.775	-27.7610
172.500000	83.705	-27.9436
175.000000	83.662	-28.1121
177.500000	83.629	-28.2794
180.000000	83.629	-28.3344
182.500000	83.647	-28.2925
185.000000	83.616	-28.3349
187.500000	83.507	-28.4604
190.000000	83.374	-28.5759
192.500000	83.261	-28.7582
195.000000	83.169	-29.0367
197.500000	83.104	-29.2338
200.000000	83.080	-29.2401
203.000000	83.062	-29.2637
206.000000	83.009	-29.5167
209.000000	82.952	-29.9150
212.000000	82.923	-30.2990
214.000000	82.909	-30.4850
218.000000	82.841	-30.6255
220.000000	82.778	-30.5779
224.000000	82.632	-30.4083
227.000000	82.537	-30.3504
230.000000	82.460	-30.3482
233.000000	82.396	-30.3794
236.000000	82.343	-30.4447
240.000000	82.278	-30.5529
243.000000	82.225	-30.6086
247.000000	82.147	-30.6266
250.000000	82.089	-30.6014
254.000000	82.016	-30.4957
258.000000	81.929	-30.2166
262.000000	81.800	-29.6821
265.000000	81.686	-29.2153
269.000000	81.598	-28.9402
272.000000	81.601	-29.1570
276.000000	81.622	-29.5938
280.000000	81.601	-29.7227
285.000000	81.544	-29.5844
290.000000	81.526	-29.5175
295.000000	81.534	-29.3848
300.000000	81.526	-29.2147
304.000000	81.507	-29.2201
307.000000	81.494	-29.3051
311.000000	81.485	-29.5115
315.000000	81.482	-29.8206
320.000000	81.477	-30.2720
325.000000	81.471	-30.7193
330.000000	81.462	-31.1284
335.000000	81.419	-31.3931
340.000000	81.319	-31.4414
345.000000	81.204	-31.3979
350.000000	81.108	-31.3950
355.000000	81.026	-31.4161
360.000000	80.953	-31.4058
365.000000	80.887	-31.3730
370.000000	80.827	-31.3300
375.000000	80.770	-31.2874
382.000000	80.692	-31.2572
387.000000	80.636	-31.2443
395.000000	80.549	-31.1926
400.000000	80.497	-31.1483
406.000000	80.438	-31.0892
412.000000	80.380	-31.0228
418.000000	80.321	-30.9483
425.000000	80.258	-30.8304
431.000000	80.210	-30.7050
437.000000	80.166	-30.5851
444.000000	80.119	-30.4664
450.000000	80.083	-30.3971
455.000000	80.055	-30.3820
462.000000	80.009	-30.4114
468.000000	79.961	-30.4244
475.000000	79.899	-30.3832
482.000000	79.839	-30.3071
487.000000	79.797	-30.2494
494.000000	79.735	-30.1472
500.000000	79.684	-30.0226
508.000000	79.623	-29.8339
515.000000	79.572	-29.6772
522.000000	79.520	-29.5187
530.000000	79.461	-29.3094
538.000000	79.404	-29.0735
545.000000	79.358	-28.8605
552.000000	79.315	-28.6428
560.000000	79.270	-28.3960
570.000000	79.215	-28.0988
580.000000	79.159	-27.7902
590.000000	79.103	-27.4539
600.000000	79.050	-27.0847
608.000000	79.010	-26.7771
615.000000	78.976	-26.5051
622.000000	78.942	-26.2186
630.000000	78.905	-25.8544
640.000000	78.866	-25.3524
650.000000	78.839	-24.8301
660.000000	78.824	-24.3187
670.000000	78.818	-23.8774
680.000000	78.811	-23.5083
690.000000	78.796	-23.1505
700.000000	78.777	-22.7565
710.000000	78.760	-22.3149
720.000000	78.747	-21.8456
730.000000	78.738	-21.3618
740.000000	78.732	-20.8623
750.000000	78.729	-20.3450
762.000000	78.732	-19.7015
775.000000	78.744	-18.9834
788.000000	78.763	-18.2497
800.000000	78.790	-17.5467
812.000000	78.830	-16.8217
825.000000	78.892	-16.0758
838.000000	78.964	-15.4357
850.000000	79.027	-14.9114
862.000000	79.087	-14.3939
875.000000	79.153	-13.8090
885.000000	79.208	-13.3417
900.000000	79.298	-12.6365
912.000000	79.377	-12.0710
925.000000	79.472	-11.4635
938.000000	79.576	-10.8838
950.000000	79.680	-10.3887
962.000000	79.789	-9.9282
975.000000	79.912	-9.4563
988.000000	80.043	-9.0096
1000.000000	80.171	-8.6215
1015.000000	80.346	-8.1785
1030.000000	80.544	-7.8476
1044.000000	80.745	-7.7563
1060.000000	80.965	-8.0236
1075.000000	81.130	-8.5798
1090.000000	81.233	-9.2131
1106.000000	81.287	-9.6761
1120.000000	81.316	-9.7584
1138.000000	81.376	-9.4879
1150.000000	81.443	-9.1937
1172.000000	81.613	-8.6561
1180.000000	81.688	-8.4909
1206.000000	81.959	-8.1631
1220.000000	82.113	-8.1616
1241.000000	82.332	-8.3459
1250.000000	82.420	-8.4642
1265.000000	82.561	-8.6859
1280.000000	82.696	-8.9254
1315.000000	82.997	-9.5290
1320.000000	83.038	-9.6232
1340.000000	83.200	-10.0231
1360.000000	83.353	-10.4398
1380.000000	83.497	-10.8383
1400.000000	83.641	-11.1945
1430.000000	83.869	-11.7422
1450.000000	84.023	-12.2043
1475.000000	84.203	-12.8672
1500.000000	84.367	-13.5571
1525.000000	84.517	-14.2258
1550.000000	84.662	-14.8415
1575.000000	84.811	-15.4161
1600.000000	84.967	-16.0405
1625.000000	85.117	-16.7634
1650.000000	85.252	-17.5355
1675.000000	85.373	-18.3029
1700.000000	85.484	-19.0492
1725.000000	85.586	-19.7767
1750.000000	85.676	-20.4620
1775.000000	85.761	-21.0642
1800.000000	85.850	-21.5908
1825.000000	85.946	-22.1134
1850.000000	86.043	-22.6738
1875.000000	86.134	-23.2568
1900.000000	86.217	-23.8279
1925.000000	86.295	-24.3535
1950.000000	86.375	-24.8254
1975.000000	86.463	-25.2844
2000.000000	86.554	-25.7828
2030.000000	86.658	-26.4410
2060.000000	86.752	-27.1260
2090.000000	86.836	-27.8086
2120.000000	86.908	-28.4688
2140.000000	86.949	-28.8739
2180.000000	87.029	-29.5543
2200.000000	87.073	-29.8511
2240.000000	87.166	-30.4384
2270.000000	87.234	-30.8745
2300.000000	87.299	-31.2667
2330.000000	87.368	-31.5859
2360.000000	87.452	-31.8628
2400.000000	87.586	-32.2876
2430.000000	87.697	-32.7062
2470.000000	87.848	-33.4319
2500.000000	87.954	-34.1060
2540.000000	88.074	-35.1195
2580.000000	88.171	-36.1838
2620.000000	88.248	-37.2867
2650.000000	88.289	-38.1275
2690.000000	88.323	-39.2050
2720.000000	88.337	-39.9433
2760.000000	88.352	-40.8545
2800.000000	88.366	-41.7510
2850.000000	88.373	-42.9036
2900.000000	88.355	-44.0734
2950.000000	88.311	-45.1678
3000.000000	88.251	-46.1548
3040.000000	88.193	-46.8933
3070.000000	88.143	-47.4077
3110.000000	88.068	-48.0128
3150.000000	87.992	-48.5339
3200.000000	87.899	-49.1353
3250.000000	87.805	-49.7390
3300.000000	87.697	-50.3381
3350.000000	87.573	-50.8687
3400.000000	87.440	-51.3156
3450.000000	87.298	-51.6956
3500.000000	87.148	-51.9816
3550.000000	86.997	-52.1714
3600.000000	86.851	-52.3251
3650.000000	86.704	-52.4995
3700.000000	86.547	-52.6924
3750.000000	86.374	-52.8566
3820.000000	86.108	-52.9963
3870.000000	85.899	-52.9975
3950.000000	85.542	-52.7325
4000.000000	85.316	-52.4274
4060.000000	85.041	-51.9810
4120.000000	84.754	-51.4390
4180.000000	84.452	-50.7594
4250.000000	84.077	-49.7433
4310.000000	83.740	-48.6030
4370.000000	83.400	-47.1879
4440.000000	83.013	-45.2529
4500.000000	82.688	-43.3876
4550.000000	82.420	-41.6782
4620.000000	82.049	-39.0206
4680.000000	81.737	-36.4371
4750.000000	81.397	-32.9956
4820.000000	81.109	-29.1278
4870.000000	80.948	-26.1672
4940.000000	80.800	-21.8523
5000.000000	80.752	-18.1199
5080.000000	80.797	-13.3088
5150.000000	80.928	-9.4446
5220.000000	81.120	-6.0983
5300.000000	81.367	-3.0580
5380.000000	81.587	-0.8280
5450.000000	81.722	0.6172
5520.000000	81.788	1.8160
5600.000000	81.788	3.1292
5700.000000	81.699	4.9218
5800.000000	81.537	7.0173
5900.000000	81.324	9.5096
6000.000000	81.085	12.4913
6080.000000	80.898	15.2115
6150.000000	80.749	17.7863
6220.000000	80.616	20.5001
6300.000000	80.483	23.7495
6400.000000	80.351	28.0228
6500.000000	80.269	32.4778
6600.000000	80.245	37.0069
6700.000000	80.275	41.5225
6800.000000	80.359	45.9911
6900.000000	80.501	50.3646
7000.000000	80.703	54.5526
7100.000000	80.962	58.4753
7200.000000	81.279	62.0876
7300.000000	81.661	65.3053
7400.000000	82.113	67.9431
7500.000000	82.621	69.7410
7620.000000	83.262	70.3925
7750.000000	83.897	68.6928
7880.000000	84.306	64.0837
8000.000000	84.313	57.6302
8120.000000	83.848	50.3973
8250.000000	82.774	43.8223
8380.000000	81.158	40.6352
8500.000000	79.302	41.7350
8620.000000	77.251	46.7100
8750.000000	75.001	55.7781
8850.000000	73.353	64.9139
9000.000000	71.170	81.6380
9120.000000	69.841	97.0318
9250.000000	69.030	114.5905
9380.000000	68.946	131.6377
9500.000000	69.370	145.8294
9620.000000	70.052	158.0053
9750.000000	70.885	168.8906
9880.000000	71.698	177.6711
10000.000000	72.376	-175.7470
10150.000000	73.089	-169.0525
10300.000000	73.644	-163.5197
10440.000000	74.018	-159.0016
10600.000000	74.283	-154.1699
10750.000000	74.395	-149.6227
10900.000000	74.399	-144.8250
11060.000000	74.314	-139.2466
11200.000000	74.196	-133.9166
11380.000000	74.019	-126.4619
11500.000000	73.905	-121.1475
11720.000000	73.736	-110.8563
11800.000000	73.694	-106.9830
12060.000000	73.645	-94.1294
12200.000000	73.673	-87.1596
12410.000000	73.783	-76.8036
12500.000000	73.854	-72.4425
12650.000000	73.997	-65.3142
12800.000000	74.165	-58.3870
13150.000000	74.600	-43.0779
13200.000000	74.663	-40.9802
13400.000000	74.909	-32.7633
13600.000000	75.144	-24.7265
13800.000000	75.381	-16.7413
14000.000000	75.646	-8.7164
14300.000000	76.182	3.3116
14500.000000	76.683	11.0543
14750.000000	77.514	19.9177
15000.000000	78.593	27.1294
15250.000000	79.852	31.3052
15500.000000	81.026	30.4761
15750.000000	81.687	23.6499
16000.000000	81.451	13.3783
16250.000000	80.203	5.2685
16500.000000	78.133	3.4123
16750.000000	75.579	8.0537
17000.000000	72.877	17.3949
17250.000000	70.283	29.6185
17500.000000	67.939	43.5190
17750.000000	65.884	58.4452
18000.000000	64.077	74.2002
18250.000000	62.435	91.1160
18500.000000	60.914	110.1318
18750.000000	59.700	132.0439
19000.000000	59.269	155.4589
19250.000000	59.709	176.3076
19500.000000	60.381	-168.1928
19750.000000	60.785	-156.9984
20000.000000	60.824	-147.6292
