* Measurement data measured by REW V5.20.13
* Source: Mic in at front panel (Pink) (Realtek(R) Audio), no input selected, L, volume: 0.250
* Format: 256k Log Swept Sine, 1 sweep at -12.0 dBFS with no timing reference
* Dated: Sep 28, 2022 12:09:44 AM
* REW Settings:
*  C-weighting compensation: Off
*  Target level: 75.0 dB
* Note: Simgot EM2R R
* Measurement: Simgot EM2R R
* Smoothing: 1/12 octave
* Frequency Step: 1/48 octave
* Start Frequency: 20.000 Hz
*
* Freq(Hz)	SPL(dB)	Phase(degrees)
20.000000	99.526	12.6389
20.299999	99.504	11.9705
20.600000	99.478	11.3376
20.900000	99.450	10.7322
21.200001	99.425	10.1402
21.400000	99.410	9.7460
21.799999	99.384	8.9539
22.000000	99.373	8.5559
22.400000	99.352	7.7626
22.700001	99.336	7.1771
23.000000	99.320	6.6044
23.299999	99.303	6.0441
23.600000	99.287	5.4952
24.000000	99.265	4.7797
24.299999	99.247	4.2560
24.700001	99.221	3.5764
25.000000	99.200	3.0793
25.400000	99.172	2.4274
25.799999	99.144	1.7792
26.200001	99.115	1.1338
26.500000	99.091	0.6573
26.900000	99.057	0.0416
27.200001	99.029	-0.4028
27.600000	98.991	-0.9785
28.000000	98.954	-1.5493
28.500000	98.906	-2.2650
29.000000	98.855	-2.9529
29.500000	98.802	-3.5705
30.000000	98.753	-4.1228
30.400000	98.720	-4.5578
30.700001	98.698	-4.8983
31.100000	98.666	-5.3677
31.500000	98.629	-5.8254
32.000000	98.575	-6.3311
32.500000	98.522	-6.7650
33.000000	98.479	-7.1952
33.500000	98.439	-7.6624
34.000000	98.396	-8.1221
34.500000	98.354	-8.5100
35.000000	98.328	-8.8480
35.500000	98.319	-9.2402
36.000000	98.314	-9.7462
36.500000	98.297	-10.3073
37.000000	98.268	-10.8143
37.500000	98.238	-11.2451
38.200001	98.205	-11.8817
38.700001	98.172	-12.4364
39.500000	98.081	-13.3008
40.000000	98.019	-13.7104
40.599998	97.962	-14.1330
41.200001	97.919	-14.6183
41.799999	97.870	-15.1561
42.500000	97.802	-15.7008
43.099998	97.754	-16.0768
43.700001	97.717	-16.4744
44.400002	97.672	-17.0209
45.000000	97.619	-17.4931
45.500000	97.571	-17.8439
46.200001	97.505	-18.2841
46.799999	97.450	-18.6478
47.500000	97.383	-19.0552
48.200001	97.313	-19.4254
48.700001	97.263	-19.6729
49.400002	97.195	-20.0138
50.000000	97.141	-20.3057
50.799999	97.075	-20.6890
51.500000	97.020	-21.0098
52.200001	96.966	-21.3096
53.000000	96.906	-21.6407
53.799999	96.850	-21.9963
54.500000	96.800	-22.3368
55.200001	96.749	-22.6838
56.000000	96.687	-23.0583
57.000000	96.608	-23.4728
58.000000	96.531	-23.8511
59.000000	96.456	-24.2348
60.000000	96.377	-24.6273
60.799999	96.312	-24.9380
61.500000	96.253	-25.2057
62.200001	96.195	-25.4676
63.000000	96.131	-25.7582
64.000000	96.056	-26.1108
65.000000	95.983	-26.4481
66.000000	95.913	-26.7568
67.000000	95.846	-27.0287
68.000000	95.781	-27.2489
69.000000	95.716	-27.4041
70.000000	95.653	-27.5194
71.000000	95.592	-27.6702
72.000000	95.523	-27.9042
73.000000	95.442	-28.1631
74.000000	95.359	-28.3821
75.000000	95.284	-28.5833
76.199997	95.205	-28.8545
77.500000	95.124	-29.1666
78.800003	95.047	-29.4512
80.000000	94.977	-29.6864
81.199997	94.906	-29.9144
82.500000	94.825	-30.1752
83.800003	94.739	-30.4582
85.000000	94.657	-30.7224
86.199997	94.573	-30.9598
87.500000	94.484	-31.1635
88.500000	94.415	-31.2798
90.000000	94.311	-31.3955
91.199997	94.226	-31.4541
92.500000	94.134	-31.5092
93.800003	94.047	-31.5817
95.000000	93.975	-31.6774
96.199997	93.909	-31.7926
97.500000	93.841	-31.9094
98.800003	93.772	-31.9833
100.000000	93.705	-32.0007
101.500000	93.617	-31.9761
103.000000	93.527	-31.9534
104.400002	93.446	-31.9747
106.000000	93.359	-32.0531
107.500000	93.282	-32.1481
109.000000	93.210	-32.2336
110.599998	93.131	-32.3064
112.000000	93.059	-32.3632
113.800003	92.961	-32.4398
115.000000	92.893	-32.4871
117.199997	92.769	-32.5145
118.000000	92.724	-32.4944
120.599998	92.584	-32.3129
122.000000	92.514	-32.1748
124.099998	92.418	-32.0029
125.000000	92.379	-31.9514
126.500000	92.317	-31.8824
128.000000	92.253	-31.8175
131.500000	92.087	-31.6570
132.000000	92.062	-31.6392
134.000000	91.971	-31.6072
136.000000	91.886	-31.6170
138.000000	91.803	-31.5829
140.000000	91.715	-31.4600
143.000000	91.573	-31.2079
145.000000	91.479	-31.0776
147.500000	91.368	-30.9362
150.000000	91.266	-30.5824
152.500000	91.191	-29.9418
155.000000	91.144	-29.2946
157.500000	91.110	-28.8112
160.000000	91.079	-28.4896
162.500000	91.039	-28.2908
165.000000	90.977	-28.1631
167.500000	90.894	-28.0253
170.000000	90.801	-27.8270
172.500000	90.710	-27.5804
175.000000	90.625	-27.3382
177.500000	90.550	-27.1497
180.000000	90.486	-27.0266
182.500000	90.436	-26.9485
185.000000	90.394	-26.8821
187.500000	90.355	-26.7993
190.000000	90.311	-26.6902
192.500000	90.259	-26.5562
195.000000	90.204	-26.3894
197.500000	90.145	-26.1627
200.000000	90.087	-25.8583
203.000000	90.022	-25.4279
206.000000	89.977	-24.9987
209.000000	89.953	-24.5800
212.000000	89.931	-24.1622
214.000000	89.904	-23.9309
218.000000	89.808	-23.6674
220.000000	89.751	-23.5746
224.000000	89.662	-23.3587
227.000000	89.613	-23.2213
230.000000	89.570	-23.1119
233.000000	89.528	-22.9707
236.000000	89.483	-22.7568
240.000000	89.416	-22.4006
243.000000	89.360	-22.1404
247.000000	89.280	-21.8173
250.000000	89.219	-21.5564
254.000000	89.144	-21.1451
258.000000	89.082	-20.6949
262.000000	89.029	-20.2828
265.000000	88.989	-20.0083
269.000000	88.932	-19.6488
272.000000	88.888	-19.3602
276.000000	88.830	-18.9457
280.000000	88.778	-18.5123
285.000000	88.727	-17.9838
290.000000	88.687	-17.5419
295.000000	88.644	-17.1948
300.000000	88.591	-16.8479
304.000000	88.548	-16.5325
307.000000	88.516	-16.2782
311.000000	88.475	-15.9298
315.000000	88.430	-15.5801
320.000000	88.372	-15.1279
325.000000	88.316	-14.6403
330.000000	88.267	-14.1321
335.000000	88.221	-13.6315
340.000000	88.176	-13.1522
345.000000	88.133	-12.6859
350.000000	88.093	-12.2167
355.000000	88.058	-11.7402
360.000000	88.024	-11.2596
365.000000	87.987	-10.7780
370.000000	87.950	-10.2952
375.000000	87.915	-9.8123
382.000000	87.871	-9.1405
387.000000	87.843	-8.6624
395.000000	87.802	-7.8942
400.000000	87.777	-7.4156
406.000000	87.748	-6.8503
412.000000	87.718	-6.2980
418.000000	87.689	-5.7429
425.000000	87.661	-5.0667
431.000000	87.643	-4.4680
437.000000	87.632	-3.8773
444.000000	87.622	-3.2169
450.000000	87.619	-2.6921
455.000000	87.617	-2.3017
462.000000	87.608	-1.8129
468.000000	87.592	-1.3925
475.000000	87.572	-0.8584
482.000000	87.554	-0.2968
487.000000	87.541	0.1067
494.000000	87.520	0.6888
500.000000	87.505	1.2163
508.000000	87.492	1.9272
515.000000	87.485	2.5258
522.000000	87.476	3.1129
530.000000	87.466	3.8010
538.000000	87.459	4.5094
545.000000	87.457	5.1289
552.000000	87.459	5.7427
560.000000	87.464	6.4275
570.000000	87.472	7.2513
580.000000	87.479	8.0672
590.000000	87.482	8.8928
600.000000	87.487	9.7363
608.000000	87.498	10.4128
615.000000	87.510	10.9969
622.000000	87.523	11.5846
630.000000	87.537	12.2802
640.000000	87.561	13.1772
650.000000	87.594	14.0753
660.000000	87.640	14.9475
670.000000	87.698	15.7355
680.000000	87.753	16.4340
690.000000	87.798	17.1020
700.000000	87.836	17.7873
710.000000	87.874	18.4998
720.000000	87.916	19.2195
730.000000	87.961	19.9358
740.000000	88.008	20.6513
750.000000	88.056	21.3694
762.000000	88.115	22.2355
775.000000	88.185	23.1741
788.000000	88.262	24.1069
800.000000	88.340	24.9734
812.000000	88.429	25.8424
825.000000	88.539	26.7260
838.000000	88.654	27.4880
850.000000	88.754	28.1099
862.000000	88.846	28.7100
875.000000	88.941	29.3661
885.000000	89.017	29.8739
900.000000	89.134	30.6173
912.000000	89.229	31.1958
925.000000	89.337	31.8031
938.000000	89.449	32.3712
950.000000	89.554	32.8494
962.000000	89.657	33.2906
975.000000	89.768	33.7430
988.000000	89.878	34.1774
1000.000000	89.977	34.5704
1015.000000	90.101	35.0704
1030.000000	90.230	35.5682
1044.000000	90.358	35.9789
1060.000000	90.505	36.3380
1075.000000	90.635	36.6018
1090.000000	90.759	36.8466
1106.000000	90.890	37.1031
1120.000000	91.002	37.3272
1138.000000	91.141	37.6276
1150.000000	91.230	37.8413
1172.000000	91.394	38.2681
1180.000000	91.456	38.4335
1206.000000	91.680	38.9270
1220.000000	91.808	39.1046
1241.000000	91.993	39.2622
1250.000000	92.067	39.3116
1265.000000	92.186	39.3911
1280.000000	92.300	39.4753
1315.000000	92.561	39.6886
1320.000000	92.598	39.7162
1340.000000	92.748	39.8132
1360.000000	92.896	39.9059
1380.000000	93.043	40.0268
1400.000000	93.197	40.1930
1430.000000	93.459	40.4193
1450.000000	93.647	40.4622
1475.000000	93.888	40.4130
1500.000000	94.137	40.3025
1525.000000	94.397	40.1681
1550.000000	94.664	40.0492
1575.000000	94.929	39.9455
1600.000000	95.163	39.7641
1625.000000	95.324	39.4385
1650.000000	95.400	39.0016
1675.000000	95.419	38.5009
1700.000000	95.429	37.9535
1725.000000	95.469	37.3579
1750.000000	95.553	36.7366
1775.000000	95.679	36.1307
1800.000000	95.841	35.5339
1825.000000	96.022	34.8771
1850.000000	96.204	34.1210
1875.000000	96.376	33.2829
1900.000000	96.534	32.4009
1925.000000	96.679	31.5137
1950.000000	96.814	30.6367
1975.000000	96.943	29.7373
2000.000000	97.062	28.7727
2030.000000	97.182	27.5344
2060.000000	97.271	26.2642
2090.000000	97.329	25.0138
2120.000000	97.357	23.8285
2140.000000	97.362	23.1080
2180.000000	97.357	21.8968
2200.000000	97.359	21.3812
2240.000000	97.374	20.3982
2270.000000	97.390	19.6389
2300.000000	97.398	18.8541
2330.000000	97.395	18.0733
2360.000000	97.382	17.3092
2400.000000	97.348	16.3102
2430.000000	97.306	15.6019
2470.000000	97.230	14.7706
2500.000000	97.158	14.2634
2540.000000	97.045	13.8127
2580.000000	96.931	13.6758
2620.000000	96.836	13.8040
2650.000000	96.784	14.0249
2690.000000	96.747	14.4321
2720.000000	96.748	14.7687
2760.000000	96.786	15.1257
2800.000000	96.848	15.2471
2850.000000	96.918	15.0563
2900.000000	96.949	14.6736
2950.000000	96.935	14.3702
3000.000000	96.903	14.2717
3040.000000	96.878	14.3246
3070.000000	96.864	14.4415
3110.000000	96.860	14.7089
3150.000000	96.883	15.0691
3200.000000	96.954	15.5288
3250.000000	97.063	15.8659
3300.000000	97.185	16.0086
3350.000000	97.301	15.9836
3400.000000	97.396	15.8519
3450.000000	97.456	15.7224
3500.000000	97.489	15.7582
3550.000000	97.525	16.0227
3600.000000	97.589	16.4159
3650.000000	97.687	16.7982
3700.000000	97.811	17.1286
3750.000000	97.967	17.4390
3820.000000	98.254	17.7424
3870.000000	98.499	17.7648
3950.000000	98.932	17.4405
4000.000000	99.219	16.9861
4060.000000	99.559	16.1277
4120.000000	99.878	14.9221
4180.000000	100.165	13.3854
4250.000000	100.449	11.1799
4310.000000	100.649	8.9763
4370.000000	100.816	6.4869
4440.000000	100.969	3.1528
4500.000000	101.050	-0.0948
4550.000000	101.071	-3.0446
4620.000000	101.015	-7.4607
4680.000000	100.874	-11.3707
4750.000000	100.596	-15.8494
4820.000000	100.204	-20.0281
4870.000000	99.858	-22.7149
4940.000000	99.294	-25.8944
5000.000000	98.754	-27.9792
5080.000000	97.982	-29.7559
5150.000000	97.290	-30.3793
5220.000000	96.615	-30.2578
5300.000000	95.886	-29.4203
5380.000000	95.207	-28.0366
5450.000000	94.647	-26.4839
5520.000000	94.115	-24.6450
5600.000000	93.546	-22.2341
5700.000000	92.909	-18.8830
5800.000000	92.363	-15.2925
5900.000000	91.901	-11.5101
6000.000000	91.521	-7.5004
6080.000000	91.280	-4.1515
6150.000000	91.117	-1.1595
6220.000000	90.997	1.8569
6300.000000	90.906	5.3262
6400.000000	90.860	9.7151
6500.000000	90.892	14.1512
6600.000000	91.007	18.5776
6700.000000	91.203	22.9581
6800.000000	91.485	27.3080
6900.000000	91.872	31.6111
7000.000000	92.381	35.7605
7100.000000	93.016	39.5920
7200.000000	93.784	42.9483
7300.000000	94.692	45.6621
7400.000000	95.737	47.4843
7500.000000	96.889	48.0851
7620.000000	98.339	46.6576
7750.000000	99.830	41.6027
7880.000000	100.983	32.1484
8000.000000	101.520	20.0640
8120.000000	101.439	6.8883
8250.000000	100.690	-5.5660
8380.000000	99.441	-14.0870
8500.000000	98.063	-18.2314
8620.000000	96.668	-19.5221
8750.000000	95.294	-18.7206
8850.000000	94.385	-17.0693
9000.000000	93.286	-13.5118
9120.000000	92.626	-10.1030
9250.000000	92.102	-6.1135
9380.000000	91.755	-1.9723
9500.000000	91.581	1.8585
9620.000000	91.539	5.5953
9750.000000	91.636	9.4644
9880.000000	91.889	13.0452
10000.000000	92.268	15.9536
10150.000000	92.939	18.8230
10300.000000	93.824	20.4714
10440.000000	94.803	20.3558
10600.000000	95.978	17.4208
10750.000000	96.949	11.2032
10900.000000	97.589	1.5150
11060.000000	97.741	-11.3777
11200.000000	97.375	-22.8511
11380.000000	96.293	-35.1086
11500.000000	95.298	-40.9502
11720.000000	93.223	-47.1932
11800.000000	92.460	-48.3853
12060.000000	90.174	-50.1322
12200.000000	89.110	-50.5133
12410.000000	87.707	-51.2023
12500.000000	87.151	-51.6630
12650.000000	86.242	-52.6992
12800.000000	85.311	-54.0026
13150.000000	82.824	-56.8882
13200.000000	82.419	-57.1161
13400.000000	80.656	-57.0721
13600.000000	78.662	-54.9219
13800.000000	76.445	-49.9233
14000.000000	74.049	-41.2881
14300.000000	70.419	-20.1342
14500.000000	68.513	-1.1818
14750.000000	67.730	23.6287
15000.000000	68.571	44.4813
15250.000000	70.146	61.3233
15500.000000	72.530	77.0524
15750.000000	75.587	89.7025
16000.000000	78.567	93.5695
16250.000000	80.889	85.4596
16500.000000	82.295	67.5551
16750.000000	82.789	45.3954
17000.000000	82.517	23.3436
17250.000000	81.582	3.4395
17500.000000	80.027	-12.7042
17750.000000	77.934	-23.7857
18000.000000	75.459	-29.7997
18250.000000	72.789	-31.7095
18500.000000	70.092	-30.5709
18750.000000	67.494	-27.2825
19000.000000	65.089	-22.6566
19250.000000	62.944	-17.3859
19500.000000	61.099	-12.0851
19750.000000	59.566	-7.3545
20000.000000	58.318	-3.7119
