* Measurement data measured by REW V5.20.13
* Source: Mic in at front panel (Pink) (Realtek(R) Audio), no input selected, L, volume: 0.250
* Format: 256k Log Swept Sine, 1 sweep at -12.0 dBFS with no timing reference
* Dated: Feb 25, 2023 1:11:29 PM
* REW Settings:
*  C-weighting compensation: Off
*  Target level: 75.0 dB
* Note: Simgot EA500 Black  R
* Measurement: Simgot EA500 Black  R
* Smoothing: 1/12 octave
* Frequency Step: 1/48 octave
* Start Frequency: 20.000 Hz
*
* Freq(Hz)	SPL(dB)	Phase(degrees)
20.000000	100.420	55.1434
20.299999	100.473	54.4629
20.600000	100.520	53.7909
20.900000	100.563	53.1263
21.200001	100.604	52.4700
21.400000	100.631	52.0383
21.799999	100.686	51.1923
22.000000	100.715	50.7791
22.400000	100.775	49.9738
22.700001	100.820	49.3867
23.000000	100.867	48.8112
23.299999	100.914	48.2435
23.600000	100.960	47.6813
24.000000	101.021	46.9379
24.299999	101.064	46.3856
24.700001	101.116	45.6593
25.000000	101.151	45.1255
25.400000	101.194	44.4318
25.799999	101.234	43.7599
26.200001	101.273	43.1086
26.500000	101.301	42.6309
26.900000	101.336	42.0048
27.200001	101.361	41.5407
27.600000	101.391	40.9277
28.000000	101.418	40.3217
28.500000	101.452	39.5791
29.000000	101.485	38.8607
29.500000	101.519	38.1687
30.000000	101.554	37.4964
30.400000	101.582	36.9662
30.700001	101.604	36.5705
31.100000	101.634	36.0451
31.500000	101.662	35.5240
32.000000	101.693	34.8827
32.500000	101.719	34.2556
33.000000	101.743	33.6424
33.500000	101.767	33.0413
34.000000	101.792	32.4515
34.500000	101.817	31.8743
35.000000	101.842	31.3115
35.500000	101.869	30.7638
36.000000	101.897	30.2305
36.500000	101.926	29.7095
37.000000	101.953	29.1986
37.500000	101.976	28.6967
38.200001	101.996	28.0083
38.700001	102.004	27.5270
39.500000	102.008	26.7771
40.000000	102.011	26.3228
40.599998	102.018	25.7934
41.200001	102.029	25.2786
41.799999	102.043	24.7725
42.500000	102.062	24.1862
43.099998	102.079	23.6874
43.700001	102.095	23.1970
44.400002	102.110	22.6393
45.000000	102.119	22.1724
45.500000	102.126	21.7908
46.200001	102.133	21.2712
46.799999	102.137	20.8417
47.500000	102.141	20.3538
48.200001	102.142	19.8710
48.700001	102.140	19.5289
49.400002	102.136	19.0607
50.000000	102.136	18.6738
50.799999	102.142	18.1768
51.500000	102.151	17.7559
52.200001	102.160	17.3473
53.000000	102.168	16.8953
53.799999	102.173	16.4559
54.500000	102.177	16.0779
55.200001	102.182	15.7039
56.000000	102.188	15.2825
57.000000	102.193	14.7625
58.000000	102.195	14.2375
59.000000	102.195	13.7066
60.000000	102.194	13.1784
60.799999	102.192	12.7612
61.500000	102.191	12.4052
62.200001	102.191	12.0623
63.000000	102.192	11.6879
64.000000	102.198	11.2386
65.000000	102.203	10.7853
66.000000	102.204	10.3116
67.000000	102.198	9.8431
68.000000	102.187	9.4150
69.000000	102.177	9.0230
70.000000	102.167	8.6334
71.000000	102.154	8.2299
72.000000	102.141	7.8269
73.000000	102.131	7.4344
74.000000	102.126	7.0496
75.000000	102.125	6.6750
76.199997	102.124	6.2443
77.500000	102.123	5.7879
78.800003	102.121	5.3318
80.000000	102.115	4.9144
81.199997	102.107	4.4915
82.500000	102.095	4.0140
83.800003	102.080	3.5082
85.000000	102.059	3.0291
86.199997	102.029	2.5824
87.500000	101.994	2.1591
88.500000	101.968	1.8645
90.000000	101.930	1.4482
91.199997	101.903	1.1334
92.500000	101.875	0.8121
93.800003	101.850	0.5040
95.000000	101.829	0.2231
96.199997	101.807	-0.0555
97.500000	101.783	-0.3544
98.800003	101.756	-0.6536
100.000000	101.729	-0.9216
101.500000	101.696	-1.2173
103.000000	101.669	-1.4684
104.400002	101.649	-1.6973
106.000000	101.628	-1.9907
107.500000	101.607	-2.3060
109.000000	101.582	-2.6417
110.599998	101.552	-2.9883
112.000000	101.518	-3.2860
113.800003	101.455	-3.7134
115.000000	101.399	-4.0646
117.199997	101.274	-4.8658
118.000000	101.224	-5.1443
120.599998	101.112	-5.4800
122.000000	101.123	-5.3513
124.099998	101.185	-5.1610
125.000000	101.206	-5.1043
126.500000	101.221	-5.0366
128.000000	101.214	-5.0240
131.500000	101.161	-5.3447
132.000000	101.152	-5.4198
134.000000	101.118	-5.7274
136.000000	101.087	-6.0239
138.000000	101.056	-6.2993
140.000000	101.025	-6.5273
143.000000	100.991	-6.7782
145.000000	100.975	-6.9389
147.500000	100.948	-7.1501
150.000000	100.912	-7.3753
152.500000	100.869	-7.6494
155.000000	100.823	-7.9237
157.500000	100.785	-8.1498
160.000000	100.755	-8.3588
162.500000	100.726	-8.5814
165.000000	100.687	-8.8107
167.500000	100.631	-9.0219
170.000000	100.555	-9.1900
172.500000	100.468	-9.3087
175.000000	100.384	-9.3859
177.500000	100.313	-9.4429
180.000000	100.259	-9.5323
182.500000	100.221	-9.6852
185.000000	100.194	-9.8669
187.500000	100.171	-10.0437
190.000000	100.141	-10.2120
192.500000	100.104	-10.3673
195.000000	100.068	-10.4854
197.500000	100.038	-10.5569
200.000000	100.011	-10.5954
203.000000	99.973	-10.6174
206.000000	99.932	-10.6431
209.000000	99.888	-10.6919
212.000000	99.837	-10.7548
214.000000	99.798	-10.7937
218.000000	99.716	-10.8290
220.000000	99.677	-10.8196
224.000000	99.609	-10.7761
227.000000	99.568	-10.7499
230.000000	99.529	-10.7366
233.000000	99.491	-10.7318
236.000000	99.451	-10.7316
240.000000	99.394	-10.7385
243.000000	99.349	-10.7418
247.000000	99.284	-10.7161
250.000000	99.235	-10.6556
254.000000	99.176	-10.5147
258.000000	99.129	-10.3499
262.000000	99.088	-10.2352
265.000000	99.054	-10.1860
269.000000	99.004	-10.1216
272.000000	98.965	-10.0493
276.000000	98.914	-9.9180
280.000000	98.868	-9.7623
285.000000	98.825	-9.5721
290.000000	98.793	-9.4580
295.000000	98.755	-9.4316
300.000000	98.706	-9.4050
304.000000	98.665	-9.3459
307.000000	98.635	-9.2827
311.000000	98.594	-9.1858
315.000000	98.550	-9.0817
320.000000	98.491	-8.9280
325.000000	98.434	-8.7306
330.000000	98.383	-8.5055
335.000000	98.334	-8.2831
340.000000	98.285	-8.0782
345.000000	98.238	-7.8817
350.000000	98.193	-7.6757
355.000000	98.152	-7.4551
360.000000	98.113	-7.2239
365.000000	98.070	-6.9860
370.000000	98.027	-6.7427
375.000000	97.984	-6.4935
382.000000	97.930	-6.1349
387.000000	97.895	-5.8733
395.000000	97.840	-5.4464
400.000000	97.806	-5.1760
406.000000	97.766	-4.8551
412.000000	97.725	-4.5394
418.000000	97.683	-4.2133
425.000000	97.640	-3.7974
431.000000	97.609	-3.4184
437.000000	97.584	-3.0438
444.000000	97.559	-2.6300
450.000000	97.542	-2.3109
455.000000	97.528	-2.0866
462.000000	97.501	-1.8212
468.000000	97.471	-1.5850
475.000000	97.433	-1.2607
482.000000	97.396	-0.9039
487.000000	97.369	-0.6434
494.000000	97.329	-0.2562
500.000000	97.296	0.1096
508.000000	97.260	0.6133
515.000000	97.232	1.0388
522.000000	97.203	1.4586
530.000000	97.168	1.9597
538.000000	97.137	2.4850
545.000000	97.113	2.9495
552.000000	97.093	3.4146
560.000000	97.073	3.9369
570.000000	97.049	4.5683
580.000000	97.023	5.2031
590.000000	96.993	5.8591
600.000000	96.966	6.5455
608.000000	96.950	7.1043
615.000000	96.939	7.5904
622.000000	96.928	8.0839
630.000000	96.916	8.6766
640.000000	96.906	9.4537
650.000000	96.905	10.2418
660.000000	96.918	11.0128
670.000000	96.942	11.7084
680.000000	96.964	12.3242
690.000000	96.976	12.9196
700.000000	96.981	13.5410
710.000000	96.986	14.1980
720.000000	96.996	14.8708
730.000000	97.008	15.5487
740.000000	97.023	16.2341
750.000000	97.039	16.9297
762.000000	97.061	17.7780
775.000000	97.090	18.7089
788.000000	97.127	19.6464
800.000000	97.168	20.5280
812.000000	97.222	21.4219
825.000000	97.293	22.3424
838.000000	97.372	23.1506
850.000000	97.438	23.8229
862.000000	97.496	24.4817
875.000000	97.555	25.2120
885.000000	97.603	25.7864
900.000000	97.678	26.6478
912.000000	97.742	27.3372
925.000000	97.815	28.0815
938.000000	97.895	28.8052
950.000000	97.971	29.4449
962.000000	98.049	30.0643
975.000000	98.135	30.7261
988.000000	98.223	31.3837
1000.000000	98.307	31.9911
1015.000000	98.417	32.7625
1030.000000	98.539	33.5245
1044.000000	98.666	34.1656
1060.000000	98.816	34.7590
1075.000000	98.951	35.2109
1090.000000	99.081	35.6168
1106.000000	99.218	36.0219
1120.000000	99.337	36.3589
1138.000000	99.484	36.7791
1150.000000	99.578	37.0564
1172.000000	99.749	37.5697
1180.000000	99.813	37.7588
1206.000000	100.037	38.3139
1220.000000	100.163	38.5207
1241.000000	100.342	38.7243
1250.000000	100.413	38.7953
1265.000000	100.525	38.9136
1280.000000	100.631	39.0401
1315.000000	100.869	39.3729
1320.000000	100.903	39.4207
1340.000000	101.039	39.6058
1360.000000	101.172	39.7983
1380.000000	101.303	40.0302
1400.000000	101.440	40.3209
1430.000000	101.677	40.7629
1450.000000	101.848	40.9697
1475.000000	102.068	41.1501
1500.000000	102.296	41.3087
1525.000000	102.538	41.4952
1550.000000	102.794	41.7411
1575.000000	103.057	42.0264
1600.000000	103.297	42.2389
1625.000000	103.473	42.2945
1650.000000	103.568	42.2109
1675.000000	103.610	42.0310
1700.000000	103.645	41.7819
1725.000000	103.708	41.4781
1750.000000	103.815	41.1552
1775.000000	103.967	40.8620
1800.000000	104.157	40.5966
1825.000000	104.370	40.2896
1850.000000	104.590	39.8977
1875.000000	104.807	39.4318
1900.000000	105.018	38.9221
1925.000000	105.224	38.3981
1950.000000	105.430	37.8648
1975.000000	105.638	37.2789
2000.000000	105.845	36.5864
2030.000000	106.080	35.6051
2060.000000	106.295	34.4991
2090.000000	106.487	33.3007
2120.000000	106.655	32.0343
2140.000000	106.752	31.1765
2180.000000	106.928	29.4826
2200.000000	107.011	28.6309
2240.000000	107.163	26.8524
2270.000000	107.256	25.4633
2300.000000	107.326	24.0801
2330.000000	107.377	22.7497
2360.000000	107.417	21.4692
2400.000000	107.455	19.7902
2430.000000	107.466	18.5620
2470.000000	107.460	17.0280
2500.000000	107.444	15.9857
2540.000000	107.419	14.7625
2580.000000	107.407	13.6660
2620.000000	107.410	12.5167
2650.000000	107.410	11.5522
2690.000000	107.387	10.1790
2720.000000	107.349	9.1625
2760.000000	107.275	7.8934
2800.000000	107.184	6.7328
2850.000000	107.052	5.4321
2900.000000	106.903	4.2998
2950.000000	106.736	3.3876
3000.000000	106.563	2.6986
3040.000000	106.427	2.2666
3070.000000	106.327	2.0132
3110.000000	106.201	1.7883
3150.000000	106.090	1.6784
3200.000000	105.976	1.6295
3250.000000	105.884	1.6101
3300.000000	105.799	1.6042
3350.000000	105.714	1.6545
3400.000000	105.630	1.7704
3450.000000	105.538	1.9479
3500.000000	105.439	2.2338
3550.000000	105.343	2.6454
3600.000000	105.262	3.1291
3650.000000	105.200	3.6212
3700.000000	105.154	4.1067
3750.000000	105.123	4.6111
3820.000000	105.112	5.3533
3870.000000	105.126	5.9222
3950.000000	105.187	6.9620
4000.000000	105.252	7.6450
4060.000000	105.346	8.4066
4120.000000	105.441	9.0762
4180.000000	105.531	9.6562
4250.000000	105.621	10.2223
4310.000000	105.690	10.6582
4370.000000	105.766	11.0547
4440.000000	105.876	11.3883
4500.000000	105.985	11.5129
4550.000000	106.083	11.4993
4620.000000	106.229	11.3007
4680.000000	106.359	10.9893
4750.000000	106.520	10.4871
4820.000000	106.697	9.7809
4870.000000	106.829	9.1072
4940.000000	107.010	7.9078
5000.000000	107.148	6.6533
5080.000000	107.288	4.7469
5150.000000	107.361	2.9888
5220.000000	107.387	1.2312
5300.000000	107.360	-0.7088
5380.000000	107.281	-2.5254
5450.000000	107.174	-4.0405
5520.000000	107.030	-5.5292
5600.000000	106.809	-7.1757
5700.000000	106.452	-8.9557
5800.000000	106.036	-10.2183
5900.000000	105.596	-10.8845
6000.000000	105.163	-10.9302
6080.000000	104.840	-10.5727
6150.000000	104.582	-10.0368
6220.000000	104.351	-9.3434
6300.000000	104.115	-8.3848
6400.000000	103.864	-6.9447
6500.000000	103.668	-5.2758
6600.000000	103.533	-3.4655
6700.000000	103.458	-1.5822
6800.000000	103.444	0.3573
6900.000000	103.498	2.3153
7000.000000	103.627	4.1992
7100.000000	103.828	5.9094
7200.000000	104.105	7.3687
7300.000000	104.466	8.4653
7400.000000	104.914	9.0143
7500.000000	105.432	8.7980
7620.000000	106.101	7.2321
7750.000000	106.803	3.5062
7880.000000	107.348	-2.6960
8000.000000	107.581	-10.4347
8120.000000	107.474	-19.2710
8250.000000	106.946	-28.7006
8380.000000	106.028	-36.5851
8500.000000	104.921	-41.7382
8620.000000	103.679	-44.7610
8750.000000	102.297	-45.9805
8850.000000	101.265	-45.7522
9000.000000	99.829	-43.9705
9120.000000	98.801	-41.6499
9250.000000	97.806	-38.5051
9380.000000	96.925	-34.8577
9500.000000	96.209	-31.1650
9620.000000	95.579	-27.2512
9750.000000	94.985	-22.8101
9880.000000	94.480	-18.2074
10000.000000	94.091	-13.8703
10150.000000	93.702	-8.3676
10300.000000	93.419	-2.8079
10440.000000	93.250	2.3743
10600.000000	93.167	8.2531
10750.000000	93.194	13.6819
10900.000000	93.328	18.9640
11060.000000	93.615	24.3729
11200.000000	94.007	28.8212
11380.000000	94.716	33.9436
11500.000000	95.322	36.8233
11720.000000	96.687	40.3307
11800.000000	97.242	40.8063
12060.000000	99.043	38.0496
12200.000000	99.833	33.2929
12410.000000	100.484	22.3652
12500.000000	100.511	16.9721
12650.000000	100.201	8.4211
12800.000000	99.497	1.7844
13150.000000	97.050	-3.0317
13200.000000	96.693	-2.6772
13400.000000	95.431	0.1678
13600.000000	94.508	3.9921
13800.000000	93.864	7.7632
14000.000000	93.413	11.3040
14300.000000	93.117	16.6336
14500.000000	93.271	20.2952
14750.000000	93.965	24.4806
15000.000000	95.194	26.9299
15250.000000	96.706	25.3461
15500.000000	98.012	17.0035
15750.000000	98.560	1.2252
16000.000000	97.984	-17.6582
16250.000000	96.299	-32.6437
16500.000000	93.860	-40.1862
16750.000000	91.152	-41.2678
17000.000000	88.604	-38.3588
17250.000000	86.473	-33.4563
17500.000000	84.841	-27.8082
17750.000000	83.664	-22.1910
18000.000000	82.840	-17.1658
18250.000000	82.263	-13.1961
18500.000000	81.812	-10.6238
18750.000000	81.347	-9.5414
19000.000000	80.744	-9.6389
19250.000000	79.911	-10.1531
19500.000000	78.807	-10.0625
19750.000000	77.451	-8.4607
20000.000000	75.917	-4.8930
