* Measurement data measured by REW V5.20.13
* Source: Mic in at front panel (Pink) (Realtek(R) Audio), no input selected, L, volume: 0.250
* Format: 256k Log Swept Sine, 1 sweep at -12.0 dBFS with no timing reference
* Dated: Sep 28, 2022 12:09:03 AM
* REW Settings:
*  C-weighting compensation: Off
*  Target level: 75.0 dB
* Note: Simgot EM2R L
* Measurement: Simgot EM2R L
* Smoothing: 1/12 octave
* Frequency Step: 1/48 octave
* Start Frequency: 20.000 Hz
*
* Freq(Hz)	SPL(dB)	Phase(degrees)
20.000000	99.478	4.7349
20.299999	99.451	4.0255
20.600000	99.419	3.3405
20.900000	99.384	2.6777
21.200001	99.349	2.0334
21.400000	99.327	1.6126
21.799999	99.287	0.7893
22.000000	99.269	0.3860
22.400000	99.237	-0.4045
22.700001	99.215	-0.9841
23.000000	99.194	-1.5525
23.299999	99.173	-2.1095
23.600000	99.152	-2.6546
24.000000	99.125	-3.3625
24.299999	99.104	-3.8802
24.700001	99.075	-4.5568
25.000000	99.052	-5.0581
25.400000	99.019	-5.7235
25.799999	98.986	-6.3885
26.200001	98.953	-7.0526
26.500000	98.926	-7.5483
26.900000	98.888	-8.2036
27.200001	98.855	-8.6882
27.600000	98.809	-9.3212
28.000000	98.761	-9.9330
28.500000	98.701	-10.6614
29.000000	98.647	-11.3539
29.500000	98.598	-12.0306
30.000000	98.551	-12.7137
30.400000	98.514	-13.2683
30.700001	98.485	-13.6837
31.100000	98.445	-14.2253
31.500000	98.403	-14.7432
32.000000	98.349	-15.3554
32.500000	98.294	-15.9456
33.000000	98.242	-16.5387
33.500000	98.190	-17.1428
34.000000	98.138	-17.7431
34.500000	98.084	-18.3171
35.000000	98.033	-18.8586
35.500000	97.987	-19.3820
36.000000	97.945	-19.9053
36.500000	97.905	-20.4317
37.000000	97.860	-20.9470
37.500000	97.811	-21.4354
38.200001	97.734	-22.0698
38.700001	97.676	-22.5001
39.500000	97.583	-23.1749
40.000000	97.527	-23.5947
40.599998	97.465	-24.0999
41.200001	97.405	-24.6044
41.799999	97.345	-25.0974
42.500000	97.274	-25.6394
43.099998	97.215	-26.0668
43.700001	97.156	-26.4597
44.400002	97.089	-26.8827
45.000000	97.033	-27.2291
45.500000	96.987	-27.5193
46.200001	96.923	-27.9404
46.799999	96.865	-28.3109
47.500000	96.793	-28.7323
48.200001	96.719	-29.1372
48.700001	96.668	-29.4358
49.400002	96.599	-29.9016
50.000000	96.538	-30.3400
50.799999	96.454	-30.9052
51.500000	96.382	-31.3209
52.200001	96.318	-31.6707
53.000000	96.255	-32.0390
53.799999	96.198	-32.4017
54.500000	96.154	-32.7213
55.200001	96.112	-33.0490
56.000000	96.061	-33.4269
57.000000	95.989	-33.8805
58.000000	95.912	-34.3368
59.000000	95.829	-34.8445
60.000000	95.738	-35.3887
60.799999	95.662	-35.8209
61.500000	95.596	-36.1842
62.200001	95.533	-36.5238
63.000000	95.464	-36.8673
64.000000	95.385	-37.2177
65.000000	95.307	-37.5049
66.000000	95.222	-37.7604
67.000000	95.124	-37.9779
68.000000	95.014	-38.1127
69.000000	94.910	-38.1894
70.000000	94.824	-38.3580
71.000000	94.746	-38.6769
72.000000	94.679	-39.0999
73.000000	94.622	-39.6226
74.000000	94.563	-40.1504
75.000000	94.504	-40.5348
76.199997	94.447	-40.8525
77.500000	94.384	-41.1969
78.800003	94.298	-41.5186
80.000000	94.204	-41.7677
81.199997	94.107	-41.9927
82.500000	94.005	-42.2097
83.800003	93.910	-42.3669
85.000000	93.833	-42.4281
86.199997	93.769	-42.4288
87.500000	93.712	-42.4552
88.500000	93.669	-42.5461
90.000000	93.600	-42.8293
91.199997	93.535	-43.1468
92.500000	93.463	-43.5018
93.800003	93.401	-43.8442
95.000000	93.354	-44.1724
96.199997	93.308	-44.5101
97.500000	93.251	-44.8432
98.800003	93.184	-45.1062
100.000000	93.116	-45.2964
101.500000	93.027	-45.4924
103.000000	92.942	-45.6684
104.400002	92.867	-45.8417
106.000000	92.785	-46.0406
107.500000	92.708	-46.2133
109.000000	92.631	-46.3928
110.599998	92.545	-46.6305
112.000000	92.471	-46.8947
113.800003	92.383	-47.2941
115.000000	92.333	-47.5676
117.199997	92.262	-48.0306
118.000000	92.236	-48.1882
120.599998	92.110	-48.5193
122.000000	92.020	-48.4274
124.099998	91.908	-47.9945
125.000000	91.871	-47.7621
126.500000	91.824	-47.3781
128.000000	91.785	-47.1027
131.500000	91.630	-47.3197
132.000000	91.598	-47.4083
134.000000	91.478	-47.7733
136.000000	91.392	-48.1058
138.000000	91.336	-48.3464
140.000000	91.293	-48.4840
143.000000	91.230	-48.6985
145.000000	91.175	-48.9644
147.500000	91.085	-49.3331
150.000000	90.981	-49.5665
152.500000	90.886	-49.6343
155.000000	90.806	-49.6790
157.500000	90.735	-49.7914
160.000000	90.674	-49.9584
162.500000	90.615	-50.0840
165.000000	90.543	-50.1121
167.500000	90.451	-50.1111
170.000000	90.342	-50.1487
172.500000	90.229	-50.2120
175.000000	90.120	-50.2665
177.500000	90.021	-50.3106
180.000000	89.938	-50.3564
182.500000	89.875	-50.3938
185.000000	89.830	-50.4161
187.500000	89.791	-50.4442
190.000000	89.752	-50.4977
192.500000	89.713	-50.5703
195.000000	89.673	-50.6389
197.500000	89.626	-50.6716
200.000000	89.572	-50.6425
203.000000	89.504	-50.5353
206.000000	89.441	-50.4575
209.000000	89.380	-50.5403
212.000000	89.316	-50.7347
214.000000	89.270	-50.8499
218.000000	89.175	-50.9456
220.000000	89.129	-50.9335
224.000000	89.050	-50.8646
227.000000	89.001	-50.8317
230.000000	88.956	-50.8322
233.000000	88.910	-50.8513
236.000000	88.863	-50.8774
240.000000	88.797	-50.9225
243.000000	88.748	-50.9602
247.000000	88.683	-50.9899
250.000000	88.635	-50.9792
254.000000	88.576	-50.9160
258.000000	88.530	-50.8392
262.000000	88.490	-50.8204
265.000000	88.459	-50.8508
269.000000	88.412	-50.9067
272.000000	88.376	-50.9307
276.000000	88.327	-50.9204
280.000000	88.279	-50.8710
285.000000	88.232	-50.8087
290.000000	88.198	-50.8151
295.000000	88.161	-50.9016
300.000000	88.119	-50.9886
304.000000	88.087	-51.0233
307.000000	88.065	-51.0409
311.000000	88.038	-51.0778
315.000000	88.007	-51.1381
320.000000	87.965	-51.2238
325.000000	87.922	-51.2869
330.000000	87.883	-51.3252
335.000000	87.846	-51.3583
340.000000	87.808	-51.4006
345.000000	87.770	-51.4499
350.000000	87.734	-51.4949
355.000000	87.704	-51.5297
360.000000	87.674	-51.5555
365.000000	87.642	-51.5745
370.000000	87.609	-51.5884
375.000000	87.579	-51.5984
382.000000	87.542	-51.6058
387.000000	87.518	-51.6063
395.000000	87.484	-51.6005
400.000000	87.463	-51.5961
406.000000	87.438	-51.5994
412.000000	87.414	-51.6133
418.000000	87.389	-51.6194
425.000000	87.366	-51.5923
431.000000	87.353	-51.5488
437.000000	87.347	-51.5132
444.000000	87.344	-51.4989
450.000000	87.345	-51.5242
455.000000	87.347	-51.5875
462.000000	87.343	-51.7262
468.000000	87.333	-51.8375
475.000000	87.320	-51.9185
482.000000	87.308	-51.9682
487.000000	87.300	-51.9999
494.000000	87.287	-52.0237
500.000000	87.279	-52.0123
508.000000	87.277	-51.9862
515.000000	87.280	-51.9861
522.000000	87.282	-52.0000
530.000000	87.284	-52.0020
538.000000	87.291	-51.9854
545.000000	87.301	-51.9716
552.000000	87.316	-51.9637
560.000000	87.336	-51.9730
570.000000	87.364	-52.0221
580.000000	87.390	-52.0884
590.000000	87.413	-52.1560
600.000000	87.437	-52.2148
608.000000	87.462	-52.2673
615.000000	87.486	-52.3260
622.000000	87.509	-52.3851
630.000000	87.534	-52.4321
640.000000	87.568	-52.4655
650.000000	87.608	-52.4955
660.000000	87.657	-52.5436
670.000000	87.714	-52.6603
680.000000	87.763	-52.8384
690.000000	87.798	-53.0026
700.000000	87.823	-53.0836
710.000000	87.850	-53.0438
720.000000	87.891	-52.8839
730.000000	87.959	-52.6393
740.000000	88.063	-52.4156
750.000000	88.195	-52.3741
762.000000	88.357	-52.6868
775.000000	88.492	-53.3214
788.000000	88.585	-53.9656
800.000000	88.653	-54.4246
812.000000	88.726	-54.7552
825.000000	88.819	-55.0706
838.000000	88.921	-55.4431
850.000000	89.013	-55.8356
862.000000	89.099	-56.2306
875.000000	89.191	-56.6385
885.000000	89.266	-56.9431
900.000000	89.385	-57.4161
912.000000	89.484	-57.8177
925.000000	89.596	-58.2899
938.000000	89.710	-58.8257
950.000000	89.812	-59.3869
962.000000	89.905	-59.9972
975.000000	89.995	-60.6844
988.000000	90.072	-61.3718
1000.000000	90.132	-61.9777
1015.000000	90.195	-62.6414
1030.000000	90.259	-63.1797
1044.000000	90.328	-63.6147
1060.000000	90.417	-64.1072
1075.000000	90.504	-64.5701
1090.000000	90.597	-65.0135
1106.000000	90.707	-65.4709
1120.000000	90.813	-65.8710
1138.000000	90.958	-66.3990
1150.000000	91.057	-66.7642
1172.000000	91.246	-67.4580
1180.000000	91.320	-67.7170
1206.000000	91.581	-68.6533
1220.000000	91.730	-69.2744
1241.000000	91.945	-70.3484
1250.000000	92.031	-70.8371
1265.000000	92.168	-71.6638
1280.000000	92.298	-72.4919
1315.000000	92.589	-74.3983
1320.000000	92.630	-74.6705
1340.000000	92.795	-75.7664
1360.000000	92.956	-76.8567
1380.000000	93.116	-77.9104
1400.000000	93.283	-78.9083
1430.000000	93.565	-80.4089
1450.000000	93.767	-81.5116
1475.000000	94.025	-82.9944
1500.000000	94.288	-84.5321
1525.000000	94.560	-86.0663
1550.000000	94.842	-87.5565
1575.000000	95.124	-89.0331
1600.000000	95.373	-90.6060
1625.000000	95.544	-92.3177
1650.000000	95.625	-94.1022
1675.000000	95.652	-95.9065
1700.000000	95.675	-97.7368
1725.000000	95.729	-99.6157
1750.000000	95.828	-101.5266
1775.000000	95.969	-103.4268
1800.000000	96.144	-105.3149
1825.000000	96.334	-107.2483
1850.000000	96.525	-109.2604
1875.000000	96.708	-111.3413
1900.000000	96.877	-113.4627
1925.000000	97.032	-115.5884
1950.000000	97.176	-117.7011
1975.000000	97.313	-119.8307
2000.000000	97.438	-122.0186
2030.000000	97.564	-124.7155
2060.000000	97.656	-127.4355
2090.000000	97.715	-130.1287
2120.000000	97.740	-132.7525
2140.000000	97.739	-134.4296
2180.000000	97.713	-137.5372
2200.000000	97.696	-138.9792
2240.000000	97.657	-141.7057
2270.000000	97.621	-143.6073
2300.000000	97.580	-145.3431
2330.000000	97.546	-146.8962
2360.000000	97.533	-148.3347
2400.000000	97.547	-150.2812
2430.000000	97.566	-151.8481
2470.000000	97.576	-154.0547
2500.000000	97.562	-155.7172
2540.000000	97.512	-157.7759
2580.000000	97.451	-159.5345
2620.000000	97.408	-161.0546
2650.000000	97.393	-162.1249
2690.000000	97.393	-163.5422
2720.000000	97.402	-164.6250
2760.000000	97.420	-166.1271
2800.000000	97.432	-167.7065
2850.000000	97.428	-169.7190
2900.000000	97.398	-171.6539
2950.000000	97.345	-173.3762
3000.000000	97.290	-174.8583
3040.000000	97.255	-175.9181
3070.000000	97.236	-176.6451
3110.000000	97.226	-177.5182
3150.000000	97.239	-178.3158
3200.000000	97.291	-179.3170
3250.000000	97.364	179.5849
3300.000000	97.432	178.4027
3350.000000	97.485	177.2615
3400.000000	97.528	176.2576
3450.000000	97.568	175.4176
3500.000000	97.619	174.7468
3550.000000	97.695	174.1813
3600.000000	97.807	173.5917
3650.000000	97.948	172.8729
3700.000000	98.106	172.0010
3750.000000	98.276	171.0101
3820.000000	98.527	169.4888
3870.000000	98.718	168.3939
3950.000000	99.066	166.6843
4000.000000	99.310	165.5173
4060.000000	99.608	163.8964
4120.000000	99.890	162.0295
4180.000000	100.150	159.9381
4250.000000	100.421	157.2027
4310.000000	100.629	154.6060
4370.000000	100.820	151.7286
4440.000000	101.019	147.8874
4500.000000	101.145	144.1257
4550.000000	101.203	140.6891
4620.000000	101.191	135.5302
4680.000000	101.077	130.9731
4750.000000	100.819	125.7975
4820.000000	100.438	121.0394
4870.000000	100.100	118.0167
4940.000000	99.557	114.4386
5000.000000	99.045	112.0295
5080.000000	98.324	109.7819
5150.000000	97.683	108.6913
5220.000000	97.056	108.3074
5300.000000	96.371	108.5546
5380.000000	95.724	109.3708
5450.000000	95.182	110.4695
5520.000000	94.659	111.9098
5600.000000	94.091	113.9451
5700.000000	93.449	116.9498
5800.000000	92.893	120.3199
5900.000000	92.419	123.9994
6000.000000	92.025	128.0200
6080.000000	91.774	131.4557
6150.000000	91.603	134.5757
6220.000000	91.475	137.7659
6300.000000	91.375	141.4888
6400.000000	91.319	146.2807
6500.000000	91.344	151.2244
6600.000000	91.459	156.2698
6700.000000	91.669	161.3624
6800.000000	91.986	166.4351
6900.000000	92.414	171.3484
7000.000000	92.940	175.9720
7100.000000	93.558	-179.7247
7200.000000	94.284	-175.7570
7300.000000	95.142	-172.2422
7400.000000	96.142	-169.4384
7500.000000	97.261	-167.7193
7620.000000	98.680	-167.7422
7750.000000	100.125	-171.3250
7880.000000	101.195	-179.2645
8000.000000	101.630	170.3824
8120.000000	101.446	159.4655
8250.000000	100.616	149.9372
8380.000000	99.332	144.4958
8500.000000	97.962	143.1155
8620.000000	96.602	144.4746
8750.000000	95.276	148.0717
8850.000000	94.403	151.8685
9000.000000	93.352	158.7006
9120.000000	92.725	164.8085
9250.000000	92.236	171.8162
9380.000000	91.927	179.0734
9500.000000	91.795	-174.1409
9620.000000	91.804	-167.3854
9750.000000	91.973	-160.1919
9880.000000	92.318	-153.2582
10000.000000	92.804	-147.2732
10150.000000	93.639	-140.6868
10300.000000	94.699	-135.6498
10440.000000	95.808	-133.1048
10600.000000	97.029	-133.7535
10750.000000	97.890	-138.3772
10900.000000	98.260	-146.2452
11060.000000	97.987	-155.7329
11200.000000	97.206	-162.4427
11380.000000	95.646	-166.6572
11500.000000	94.407	-166.5830
11720.000000	92.079	-161.9573
11800.000000	91.283	-159.3038
12060.000000	89.055	-148.9034
12200.000000	88.096	-142.8292
12410.000000	86.929	-133.7990
12500.000000	86.505	-130.0857
12650.000000	85.859	-124.2015
12800.000000	85.247	-118.7072
13150.000000	83.758	-106.9746
13200.000000	83.528	-105.3722
13400.000000	82.543	-99.0864
13600.000000	81.415	-92.8921
13800.000000	80.078	-86.3693
14000.000000	78.502	-78.7661
14300.000000	75.768	-63.6889
14500.000000	73.790	-50.3079
14750.000000	71.249	-28.6027
15000.000000	68.879	0.4344
15250.000000	67.840	37.5991
15500.000000	69.793	78.5420
15750.000000	73.380	113.4406
16000.000000	76.763	134.0482
16250.000000	79.311	138.7827
16500.000000	80.857	132.2089
16750.000000	81.497	121.3115
17000.000000	81.437	110.4744
17250.000000	80.776	101.0166
17500.000000	79.483	94.3906
17750.000000	77.556	92.7980
18000.000000	75.116	97.2848
18250.000000	72.376	107.0911
18500.000000	69.571	120.6158
18750.000000	66.908	136.3542
19000.000000	64.521	153.2521
19250.000000	62.467	170.6155
19500.000000	60.747	-172.0913
19750.000000	59.331	-155.2846
20000.000000	58.158	-139.2389
