* Measurement data measured by REW V5.20.4
* Source: Mic in at front panel (Pink) (Realtek(R) Audio), MICROPHONE (Master Volume), L, volume: 0.250
* Format: 256k Log Swept Sine, 1 sweep at -12.0 dBFS with no timing reference
* Dated: Jan 13, 2022 6:03:43 PM
* REW Settings:
*  C-weighting compensation: Off
*  Target level: 75.0 dB
* Note: Softears RSV R
* Measurement: Softears RSV R
* Smoothing: 1/12 octave
* Frequency Step: 1/48 octave
* Start Frequency: 20.000 Hz
*
* Freq(Hz)	SPL(dB)	Phase(degrees)
20.000000	97.075	51.5991
20.299999	97.133	50.7475
20.600000	97.189	49.9091
20.900000	97.243	49.0859
21.200001	97.296	48.2791
21.400000	97.331	47.7501
21.799999	97.400	46.7109
22.000000	97.434	46.1988
22.400000	97.500	45.1858
22.700001	97.548	44.4341
23.000000	97.593	43.6901
23.299999	97.636	42.9569
23.600000	97.676	42.2373
24.000000	97.726	41.3021
24.299999	97.761	40.6186
24.700001	97.806	39.7270
25.000000	97.838	39.0692
25.400000	97.879	38.2032
25.799999	97.918	37.3497
26.200001	97.954	36.5109
26.500000	97.979	35.8926
26.900000	98.012	35.0824
27.200001	98.036	34.4836
27.600000	98.066	33.6944
28.000000	98.095	32.9142
28.500000	98.128	31.9536
29.000000	98.158	31.0145
29.500000	98.186	30.0993
30.000000	98.213	29.2060
30.400000	98.233	28.5051
30.700001	98.248	27.9873
31.100000	98.267	27.3084
31.500000	98.284	26.6442
32.000000	98.303	25.8358
32.500000	98.321	25.0522
33.000000	98.337	24.2928
33.500000	98.352	23.5573
34.000000	98.367	22.8427
34.500000	98.384	22.1400
35.000000	98.403	21.4358
35.500000	98.422	20.7155
36.000000	98.438	19.9735
36.500000	98.451	19.2162
37.000000	98.459	18.4584
37.500000	98.462	17.7148
38.200001	98.461	16.7142
38.700001	98.459	16.0316
39.500000	98.454	14.9905
40.000000	98.451	14.3672
40.599998	98.447	13.6410
41.200001	98.443	12.9318
41.799999	98.437	12.2358
42.500000	98.426	11.4421
43.099998	98.412	10.7823
43.700001	98.397	10.1388
44.400002	98.378	9.3932
45.000000	98.359	8.7499
45.500000	98.339	8.2184
46.200001	98.309	7.5012
46.799999	98.284	6.9175
47.500000	98.260	6.2558
48.200001	98.242	5.5862
48.700001	98.231	5.0909
49.400002	98.211	4.3796
50.000000	98.187	3.7900
50.799999	98.149	3.1062
51.500000	98.120	2.6134
52.200001	98.102	2.1613
53.000000	98.089	1.6246
53.799999	98.077	1.0481
54.500000	98.061	0.5269
55.200001	98.042	0.0093
56.000000	98.017	-0.5706
57.000000	97.984	-1.2963
58.000000	97.949	-2.0225
59.000000	97.913	-2.7310
60.000000	97.876	-3.4387
60.799999	97.842	-4.0031
61.500000	97.808	-4.4791
62.200001	97.773	-4.9310
63.000000	97.731	-5.4238
64.000000	97.678	-6.0221
65.000000	97.624	-6.6130
66.000000	97.570	-7.1989
67.000000	97.515	-7.7797
68.000000	97.460	-8.3465
69.000000	97.404	-8.8846
70.000000	97.349	-9.3870
71.000000	97.295	-9.8614
72.000000	97.240	-10.3148
73.000000	97.182	-10.7401
74.000000	97.122	-11.1295
75.000000	97.061	-11.4836
76.199997	96.990	-11.8783
77.500000	96.917	-12.2922
78.800003	96.849	-12.6973
80.000000	96.793	-13.0692
81.199997	96.744	-13.4617
82.500000	96.691	-13.9343
83.800003	96.628	-14.4326
85.000000	96.561	-14.8657
86.199997	96.488	-15.2695
87.500000	96.407	-15.6961
88.500000	96.342	-16.0051
90.000000	96.250	-16.4079
91.199997	96.185	-16.6823
92.500000	96.121	-16.9546
93.800003	96.056	-17.2087
95.000000	95.990	-17.4256
96.199997	95.918	-17.6346
97.500000	95.838	-17.8605
98.800003	95.761	-18.0837
100.000000	95.697	-18.2823
101.500000	95.625	-18.5105
103.000000	95.555	-18.7019
104.400002	95.483	-18.8411
106.000000	95.398	-18.9785
107.500000	95.322	-19.1145
109.000000	95.253	-19.2463
110.599998	95.183	-19.3710
112.000000	95.109	-19.5049
113.800003	94.971	-19.7885
115.000000	94.850	-20.0894
117.199997	94.590	-20.8322
118.000000	94.494	-21.0628
120.599998	94.284	-21.0696
122.000000	94.273	-20.8073
124.099998	94.303	-20.7505
125.000000	94.301	-20.8704
126.500000	94.263	-21.1326
128.000000	94.197	-21.2428
131.500000	94.121	-20.4244
132.000000	94.120	-20.2649
134.000000	94.104	-19.7210
136.000000	94.043	-19.3887
138.000000	93.953	-19.2389
140.000000	93.871	-19.1742
143.000000	93.779	-19.0639
145.000000	93.722	-18.9703
147.500000	93.639	-18.8332
150.000000	93.548	-18.6263
152.500000	93.451	-18.3599
155.000000	93.354	-18.0406
157.500000	93.280	-17.6799
160.000000	93.233	-17.3434
162.500000	93.192	-17.0476
165.000000	93.145	-16.7850
167.500000	93.094	-16.5472
170.000000	93.042	-16.3093
172.500000	92.994	-16.0439
175.000000	92.952	-15.7461
177.500000	92.915	-15.4368
180.000000	92.882	-15.1369
182.500000	92.852	-14.8577
185.000000	92.825	-14.6139
187.500000	92.797	-14.4121
190.000000	92.765	-14.2254
192.500000	92.733	-14.0227
195.000000	92.704	-13.8107
197.500000	92.680	-13.6136
200.000000	92.663	-13.4332
203.000000	92.650	-13.1935
206.000000	92.634	-12.8861
209.000000	92.609	-12.5472
212.000000	92.581	-12.2458
214.000000	92.563	-12.0702
218.000000	92.533	-11.7262
220.000000	92.521	-11.5414
224.000000	92.500	-11.1394
227.000000	92.485	-10.8314
230.000000	92.470	-10.5483
233.000000	92.458	-10.2966
236.000000	92.448	-10.0693
240.000000	92.437	-9.7977
243.000000	92.427	-9.6094
247.000000	92.411	-9.3519
250.000000	92.398	-9.1337
254.000000	92.385	-8.7979
258.000000	92.385	-8.4536
262.000000	92.392	-8.1723
265.000000	92.397	-8.0068
269.000000	92.398	-7.8005
272.000000	92.397	-7.6292
276.000000	92.399	-7.3735
280.000000	92.407	-7.1097
285.000000	92.427	-6.8110
290.000000	92.455	-6.6093
295.000000	92.475	-6.5164
300.000000	92.480	-6.4446
304.000000	92.479	-6.3608
307.000000	92.478	-6.2847
311.000000	92.477	-6.1787
315.000000	92.475	-6.0753
320.000000	92.469	-5.9344
325.000000	92.463	-5.7612
330.000000	92.460	-5.5711
335.000000	92.461	-5.3922
340.000000	92.463	-5.2389
345.000000	92.464	-5.1029
350.000000	92.462	-4.9679
355.000000	92.460	-4.8311
360.000000	92.459	-4.6991
365.000000	92.457	-4.5726
370.000000	92.454	-4.4457
375.000000	92.450	-4.3141
382.000000	92.445	-4.1249
387.000000	92.442	-3.9895
395.000000	92.437	-3.7706
400.000000	92.435	-3.6330
406.000000	92.434	-3.4753
412.000000	92.432	-3.3284
418.000000	92.428	-3.1749
425.000000	92.425	-2.9631
431.000000	92.427	-2.7635
437.000000	92.434	-2.5761
444.000000	92.448	-2.3920
450.000000	92.464	-2.2798
455.000000	92.477	-2.2354
462.000000	92.485	-2.2341
468.000000	92.480	-2.2345
475.000000	92.468	-2.1934
482.000000	92.453	-2.1223
487.000000	92.441	-2.0644
494.000000	92.419	-1.9536
500.000000	92.399	-1.8148
508.000000	92.378	-1.5977
515.000000	92.361	-1.4069
522.000000	92.342	-1.2003
530.000000	92.319	-0.9030
538.000000	92.304	-0.5330
545.000000	92.302	-0.1825
552.000000	92.314	0.1501
560.000000	92.342	0.4408
570.000000	92.378	0.6176
580.000000	92.393	0.6786
590.000000	92.387	0.7544
600.000000	92.369	0.9125
608.000000	92.355	1.0913
615.000000	92.342	1.2703
622.000000	92.328	1.4742
630.000000	92.314	1.7506
640.000000	92.304	2.1428
650.000000	92.305	2.5469
660.000000	92.317	2.9314
670.000000	92.334	3.2430
680.000000	92.346	3.4845
690.000000	92.348	3.7197
700.000000	92.343	3.9948
710.000000	92.338	4.3163
720.000000	92.336	4.6615
730.000000	92.336	5.0184
740.000000	92.337	5.3894
750.000000	92.340	5.7756
762.000000	92.347	6.2565
775.000000	92.358	6.7917
788.000000	92.373	7.3400
800.000000	92.392	7.8751
812.000000	92.421	8.4375
825.000000	92.469	9.0068
838.000000	92.525	9.4592
850.000000	92.570	9.7958
862.000000	92.608	10.1153
875.000000	92.642	10.4794
885.000000	92.669	10.7745
900.000000	92.709	11.2231
912.000000	92.743	11.5887
925.000000	92.784	11.9897
938.000000	92.830	12.3760
950.000000	92.874	12.7061
962.000000	92.919	13.0161
975.000000	92.966	13.3434
988.000000	93.014	13.6699
1000.000000	93.058	13.9788
1015.000000	93.116	14.3918
1030.000000	93.184	14.8168
1044.000000	93.257	15.1658
1060.000000	93.342	15.4589
1075.000000	93.412	15.6740
1090.000000	93.473	15.9028
1106.000000	93.536	16.2009
1120.000000	93.594	16.5145
1138.000000	93.683	16.9672
1150.000000	93.755	17.2614
1172.000000	93.913	17.6582
1180.000000	93.974	17.7335
1206.000000	94.170	17.6875
1220.000000	94.259	17.5009
1241.000000	94.360	17.1396
1250.000000	94.391	16.9929
1265.000000	94.433	16.7866
1280.000000	94.465	16.6345
1315.000000	94.521	16.4728
1320.000000	94.528	16.4658
1340.000000	94.554	16.4685
1360.000000	94.577	16.5370
1380.000000	94.601	16.7071
1400.000000	94.632	17.0060
1430.000000	94.701	17.6143
1450.000000	94.756	18.0519
1475.000000	94.827	18.6752
1500.000000	94.905	19.4377
1525.000000	94.998	20.3043
1550.000000	95.114	21.1501
1575.000000	95.252	21.8103
1600.000000	95.395	22.1544
1625.000000	95.513	22.2169
1650.000000	95.596	22.1656
1675.000000	95.646	22.1497
1700.000000	95.676	22.2482
1725.000000	95.692	22.4869
1750.000000	95.697	22.8940
1775.000000	95.702	23.5093
1800.000000	95.723	24.3297
1825.000000	95.773	25.2866
1850.000000	95.856	26.3185
1875.000000	95.979	27.3771
1900.000000	96.147	28.3953
1925.000000	96.360	29.3040
1950.000000	96.613	30.0513
1975.000000	96.896	30.5870
2000.000000	97.194	30.8708
2030.000000	97.550	30.8749
2060.000000	97.885	30.5534
2090.000000	98.184	29.9841
2120.000000	98.438	29.2914
2140.000000	98.582	28.8445
2180.000000	98.835	28.1618
2200.000000	98.957	27.9354
2240.000000	99.217	27.6279
2270.000000	99.432	27.4574
2300.000000	99.671	27.2776
2330.000000	99.936	27.0157
2360.000000	100.224	26.5668
2400.000000	100.613	25.5374
2430.000000	100.886	24.4537
2470.000000	101.207	22.7268
2500.000000	101.414	21.3152
2540.000000	101.652	19.4072
2580.000000	101.863	17.5410
2620.000000	102.062	15.6626
2650.000000	102.201	14.2092
2690.000000	102.370	12.2189
2720.000000	102.486	10.6987
2760.000000	102.631	8.6008
2800.000000	102.759	6.3615
2850.000000	102.875	3.3570
2900.000000	102.927	0.2190
2950.000000	102.911	-2.8849
3000.000000	102.839	-5.8654
3040.000000	102.745	-8.1550
3070.000000	102.652	-9.7916
3110.000000	102.501	-11.8208
3150.000000	102.327	-13.6644
3200.000000	102.085	-15.7438
3250.000000	101.809	-17.5753
3300.000000	101.495	-19.0642
3350.000000	101.152	-20.0538
3400.000000	100.813	-20.4981
3450.000000	100.505	-20.4875
3500.000000	100.245	-20.1423
3550.000000	100.041	-19.6053
3600.000000	99.890	-19.0294
3650.000000	99.775	-18.5111
3700.000000	99.678	-18.0609
3750.000000	99.592	-17.6345
3820.000000	99.480	-17.0394
3870.000000	99.402	-16.5819
3950.000000	99.290	-15.7030
4000.000000	99.242	-15.1010
4060.000000	99.206	-14.4094
4120.000000	99.185	-13.7695
4180.000000	99.175	-13.1639
4250.000000	99.173	-12.4796
4310.000000	99.179	-11.8595
4370.000000	99.203	-11.2084
4440.000000	99.259	-10.5089
4500.000000	99.327	-10.0283
4550.000000	99.393	-9.7225
4620.000000	99.490	-9.4402
4680.000000	99.575	-9.2990
4750.000000	99.681	-9.2078
4820.000000	99.800	-9.2344
4870.000000	99.891	-9.3657
4940.000000	100.019	-9.7288
5000.000000	100.119	-10.2048
5080.000000	100.227	-11.0103
5150.000000	100.296	-11.7827
5220.000000	100.348	-12.5823
5300.000000	100.387	-13.5308
5380.000000	100.402	-14.5012
5450.000000	100.390	-15.3293
5520.000000	100.358	-16.0709
5600.000000	100.312	-16.7729
5700.000000	100.268	-17.5079
5800.000000	100.252	-18.2625
5900.000000	100.253	-19.1985
6000.000000	100.260	-20.3962
6080.000000	100.259	-21.6064
6150.000000	100.241	-22.8755
6220.000000	100.193	-24.3215
6300.000000	100.087	-26.0963
6400.000000	99.865	-28.2618
6500.000000	99.549	-30.0667
6600.000000	99.165	-31.2303
6700.000000	98.757	-31.6327
6800.000000	98.375	-31.3411
6900.000000	98.053	-30.5284
7000.000000	97.813	-29.4193
7100.000000	97.661	-28.2649
7200.000000	97.595	-27.2743
7300.000000	97.600	-26.6107
7400.000000	97.659	-26.4204
7500.000000	97.743	-26.8037
7620.000000	97.837	-28.0507
7750.000000	97.890	-30.3393
7880.000000	97.841	-33.5179
8000.000000	97.655	-36.9789
8120.000000	97.313	-40.5327
8250.000000	96.771	-44.0342
8380.000000	96.070	-46.7681
8500.000000	95.319	-48.3474
8620.000000	94.519	-48.9686
8750.000000	93.645	-48.6832
8850.000000	92.991	-47.8876
9000.000000	92.072	-45.9658
9120.000000	91.406	-44.0248
9250.000000	90.751	-41.7120
9380.000000	90.150	-39.2601
9500.000000	89.631	-36.8825
9620.000000	89.139	-34.3566
9750.000000	88.643	-31.3984
9880.000000	88.204	-28.2594
10000.000000	87.862	-25.3517
10150.000000	87.506	-21.9232
10300.000000	87.201	-18.9035
10440.000000	86.915	-16.5168
10600.000000	86.528	-14.1089
10750.000000	86.064	-11.7425
10900.000000	85.494	-8.7107
11060.000000	84.817	-4.1669
11200.000000	84.265	1.0256
11380.000000	83.767	8.7778
11500.000000	83.612	14.0688
11720.000000	83.621	22.9556
11800.000000	83.680	25.8262
12060.000000	83.931	34.0380
12200.000000	84.073	37.9857
12410.000000	84.284	43.6601
12500.000000	84.379	46.0738
12650.000000	84.556	50.1436
12800.000000	84.777	54.3093
13150.000000	85.606	64.2875
13200.000000	85.775	65.7036
13400.000000	86.615	71.1236
13600.000000	87.728	75.7200
13800.000000	89.066	78.6865
14000.000000	90.484	79.0171
14300.000000	92.290	72.8863
14500.000000	92.986	64.8612
14750.000000	93.166	53.6359
15000.000000	92.823	44.5504
15250.000000	92.440	37.8835
15500.000000	92.288	30.9015
15750.000000	92.161	21.1742
16000.000000	91.653	9.0497
16250.000000	90.542	-2.7451
16500.000000	88.855	-11.6162
16750.000000	86.753	-16.5927
17000.000000	84.421	-18.0200
17250.000000	82.024	-16.7136
17500.000000	79.674	-13.3810
17750.000000	77.425	-8.4422
18000.000000	75.289	-2.0608
18250.000000	73.257	5.7762
18500.000000	71.335	15.0939
18750.000000	69.572	25.6261
19000.000000	68.040	36.7073
19250.000000	66.799	47.3270
19500.000000	65.870	56.0670
19750.000000	65.191	61.9198
