* Measurement data measured by REW V5.20.11
* Source: Mic in at front panel (Pink) (Realtek(R) Audio), MICROPHONE (Master Volume), L, volume: 0.250
* Format: 256k Log Swept Sine, 1 sweep at -12.0 dBFS with no timing reference
* Dated: Aug 26, 2022 11:42:07 PM
* REW Settings:
*  C-weighting compensation: Off
*  Target level: 75.0 dB
* Note: Tin P1max R
* Measurement: KZ EDX Ultra Aug 26
* Smoothing: 1/12 octave
* Frequency Step: 1/48 octave
* Start Frequency: 20.000 Hz
*
* Freq(Hz)	SPL(dB)	Phase(degrees)
20.000000	95.999	-139.5551
20.299999	96.032	-140.2270
20.600000	96.064	-140.8862
20.900000	96.095	-141.5353
21.200001	96.125	-142.1754
21.400000	96.143	-142.5965
21.799999	96.178	-143.4224
22.000000	96.195	-143.8261
22.400000	96.226	-144.6130
22.700001	96.249	-145.1859
23.000000	96.271	-145.7460
23.299999	96.293	-146.2959
23.600000	96.314	-146.8370
24.000000	96.341	-147.5464
24.299999	96.360	-148.0691
24.700001	96.384	-148.7521
25.000000	96.401	-149.2527
25.400000	96.421	-149.9033
25.799999	96.441	-150.5337
26.200001	96.460	-151.1441
26.500000	96.473	-151.5897
26.900000	96.491	-152.1695
27.200001	96.504	-152.5952
27.600000	96.522	-153.1526
28.000000	96.538	-153.7002
28.500000	96.558	-154.3709
29.000000	96.576	-155.0252
29.500000	96.592	-155.6624
30.000000	96.608	-156.2839
30.400000	96.619	-156.7714
30.700001	96.627	-157.1319
31.100000	96.636	-157.6053
31.500000	96.644	-158.0696
32.000000	96.654	-158.6364
32.500000	96.662	-159.1894
33.000000	96.670	-159.7330
33.500000	96.678	-160.2708
34.000000	96.685	-160.8041
34.500000	96.690	-161.3319
35.000000	96.694	-161.8528
35.500000	96.696	-162.3638
36.000000	96.697	-162.8607
36.500000	96.697	-163.3417
37.000000	96.697	-163.8094
37.500000	96.698	-164.2686
38.200001	96.697	-164.8970
38.700001	96.694	-165.3291
39.500000	96.689	-165.9844
40.000000	96.686	-166.3740
40.599998	96.681	-166.8193
41.200001	96.677	-167.2362
41.799999	96.677	-167.6372
42.500000	96.679	-168.1175
43.099998	96.680	-168.5496
43.700001	96.677	-168.9831
44.400002	96.671	-169.4722
45.000000	96.666	-169.8808
45.500000	96.661	-170.2204
46.200001	96.653	-170.6943
46.799999	96.644	-171.0927
47.500000	96.633	-171.5415
48.200001	96.622	-171.9724
48.700001	96.615	-172.2729
49.400002	96.606	-172.6911
50.000000	96.597	-173.0489
50.799999	96.582	-173.5152
51.500000	96.567	-173.8993
52.200001	96.551	-174.2554
53.000000	96.534	-174.6365
53.799999	96.518	-175.0078
54.500000	96.504	-175.3305
55.200001	96.490	-175.6471
56.000000	96.476	-176.0037
57.000000	96.463	-176.4701
58.000000	96.449	-176.9756
59.000000	96.430	-177.4979
60.000000	96.408	-178.0139
60.799999	96.385	-178.4085
61.500000	96.364	-178.7320
62.200001	96.340	-179.0325
63.000000	96.312	-179.3487
64.000000	96.277	-179.7100
65.000000	96.243	179.9486
66.000000	96.209	179.6178
67.000000	96.177	179.3083
68.000000	96.147	179.0238
69.000000	96.123	178.7569
70.000000	96.101	178.5086
71.000000	96.081	178.2835
72.000000	96.062	178.0718
73.000000	96.044	177.8575
74.000000	96.024	177.6307
75.000000	96.002	177.3834
76.199997	95.969	177.0944
77.500000	95.940	176.8922
78.800003	95.943	176.7077
80.000000	95.962	176.4121
81.199997	95.976	176.0192
82.500000	95.978	175.5520
83.800003	95.963	175.0816
85.000000	95.936	174.6691
86.199997	95.900	174.2986
87.500000	95.859	173.9484
88.500000	95.828	173.7026
90.000000	95.786	173.3358
91.199997	95.753	173.0291
92.500000	95.715	172.6971
93.800003	95.679	172.3757
95.000000	95.646	172.0894
96.199997	95.612	171.8201
97.500000	95.574	171.5510
98.800003	95.533	171.2961
100.000000	95.494	171.0672
101.500000	95.446	170.7916
103.000000	95.402	170.5392
104.400002	95.367	170.3363
106.000000	95.329	170.1328
107.500000	95.287	169.9366
109.000000	95.240	169.6990
110.599998	95.190	169.3837
112.000000	95.151	169.0930
113.800003	95.104	168.8673
115.000000	95.072	168.9286
117.199997	95.014	169.5410
118.000000	94.999	169.8306
120.599998	94.968	170.1013
122.000000	94.927	169.6312
124.099998	94.834	168.6551
125.000000	94.798	168.2789
126.500000	94.754	167.7892
128.000000	94.723	167.4834
131.500000	94.647	167.1754
132.000000	94.634	167.1383
134.000000	94.583	166.9408
136.000000	94.539	166.6764
138.000000	94.498	166.4279
140.000000	94.451	166.2602
143.000000	94.361	166.1923
145.000000	94.306	166.1353
147.500000	94.241	165.8865
150.000000	94.154	165.6211
152.500000	94.058	165.5547
155.000000	93.984	165.6039
157.500000	93.936	165.6191
160.000000	93.894	165.6067
162.500000	93.845	165.5745
165.000000	93.786	165.4753
167.500000	93.719	165.3608
170.000000	93.651	165.3192
172.500000	93.588	165.3464
175.000000	93.531	165.3842
177.500000	93.478	165.3938
180.000000	93.428	165.3755
182.500000	93.381	165.3475
185.000000	93.334	165.3192
187.500000	93.285	165.2892
190.000000	93.232	165.2585
192.500000	93.177	165.2327
195.000000	93.120	165.2158
197.500000	93.063	165.2131
200.000000	93.007	165.2310
203.000000	92.941	165.2797
206.000000	92.881	165.3352
209.000000	92.822	165.3694
212.000000	92.758	165.3909
214.000000	92.713	165.4161
218.000000	92.620	165.5292
220.000000	92.575	165.6186
224.000000	92.494	165.8300
227.000000	92.439	165.9810
230.000000	92.384	166.1021
233.000000	92.329	166.2016
236.000000	92.274	166.2998
240.000000	92.200	166.4368
243.000000	92.142	166.5447
247.000000	92.062	166.7126
250.000000	92.000	166.8751
254.000000	91.922	167.1532
258.000000	91.855	167.4590
262.000000	91.797	167.7227
265.000000	91.752	167.8899
269.000000	91.687	168.1153
272.000000	91.636	168.3093
276.000000	91.571	168.6038
280.000000	91.511	168.9211
285.000000	91.448	169.3100
290.000000	91.393	169.6284
295.000000	91.333	169.8670
300.000000	91.260	170.1107
304.000000	91.198	170.3450
307.000000	91.152	170.5391
311.000000	91.090	170.8108
315.000000	91.029	171.0937
320.000000	90.951	171.4794
325.000000	90.875	171.9136
330.000000	90.804	172.3772
335.000000	90.739	172.8439
340.000000	90.678	173.3008
345.000000	90.616	173.7557
350.000000	90.555	174.2265
355.000000	90.494	174.7192
360.000000	90.436	175.2306
365.000000	90.380	175.7574
370.000000	90.327	176.2971
375.000000	90.275	176.8495
382.000000	90.206	177.6451
387.000000	90.160	178.2280
395.000000	90.093	179.1855
400.000000	90.056	179.7977
406.000000	90.016	-179.4629
412.000000	89.979	-178.7223
418.000000	89.943	-177.9632
425.000000	89.907	-177.0300
431.000000	89.887	-176.2010
437.000000	89.876	-175.3745
444.000000	89.873	-174.4326
450.000000	89.881	-173.6604
455.000000	89.890	-173.0591
462.000000	89.902	-172.2714
468.000000	89.908	-171.5971
475.000000	89.917	-170.7766
482.000000	89.933	-169.9447
487.000000	89.948	-169.3599
494.000000	89.973	-168.5417
500.000000	90.001	-167.8305
508.000000	90.050	-166.9083
515.000000	90.101	-166.1625
522.000000	90.154	-165.4672
530.000000	90.218	-164.7046
538.000000	90.286	-163.9751
545.000000	90.351	-163.3808
552.000000	90.418	-162.8321
560.000000	90.498	-162.2699
570.000000	90.595	-161.6689
580.000000	90.685	-161.1461
590.000000	90.769	-160.6722
600.000000	90.847	-160.2261
608.000000	90.908	-159.8961
615.000000	90.958	-159.6328
622.000000	91.004	-159.3789
630.000000	91.053	-159.0757
640.000000	91.114	-158.6787
650.000000	91.179	-158.2864
660.000000	91.248	-157.9213
670.000000	91.318	-157.6358
680.000000	91.379	-157.4294
690.000000	91.427	-157.2393
700.000000	91.464	-157.0170
710.000000	91.497	-156.7512
720.000000	91.529	-156.4598
730.000000	91.560	-156.1534
740.000000	91.590	-155.8290
750.000000	91.619	-155.4829
762.000000	91.654	-155.0375
775.000000	91.695	-154.5234
788.000000	91.739	-153.9826
800.000000	91.784	-153.4506
812.000000	91.838	-152.8913
825.000000	91.909	-152.3174
838.000000	91.986	-151.8407
850.000000	92.050	-151.4609
862.000000	92.107	-151.0815
875.000000	92.166	-150.6398
885.000000	92.212	-150.2780
900.000000	92.285	-149.7205
912.000000	92.347	-149.2625
925.000000	92.419	-148.7598
938.000000	92.496	-148.2715
950.000000	92.571	-147.8467
962.000000	92.647	-147.4416
975.000000	92.729	-147.0122
988.000000	92.813	-146.5869
1000.000000	92.891	-146.1917
1015.000000	92.995	-145.6788
1030.000000	93.111	-145.1657
1044.000000	93.231	-144.7475
1060.000000	93.373	-144.3963
1075.000000	93.498	-144.1583
1090.000000	93.617	-143.9526
1106.000000	93.739	-143.7455
1120.000000	93.844	-143.5694
1138.000000	93.979	-143.3439
1150.000000	94.070	-143.1950
1172.000000	94.243	-142.9344
1180.000000	94.309	-142.8470
1206.000000	94.536	-142.6611
1220.000000	94.661	-142.6713
1241.000000	94.835	-142.8056
1250.000000	94.904	-142.8823
1265.000000	95.014	-143.0136
1280.000000	95.120	-143.1422
1315.000000	95.366	-143.4433
1320.000000	95.401	-143.4923
1340.000000	95.542	-143.7156
1360.000000	95.680	-143.9729
1380.000000	95.816	-144.2435
1400.000000	95.959	-144.5203
1430.000000	96.194	-145.0853
1450.000000	96.354	-145.6837
1475.000000	96.534	-146.6943
1500.000000	96.675	-147.9426
1525.000000	96.763	-149.3370
1550.000000	96.786	-150.7210
1575.000000	96.751	-151.9052
1600.000000	96.676	-152.7684
1625.000000	96.581	-153.2486
1650.000000	96.494	-153.3449
1675.000000	96.438	-153.1642
1700.000000	96.422	-152.8612
1725.000000	96.439	-152.5530
1750.000000	96.476	-152.2644
1775.000000	96.530	-151.9582
1800.000000	96.608	-151.6266
1825.000000	96.714	-151.3299
1850.000000	96.845	-151.1214
1875.000000	97.000	-151.0341
1900.000000	97.176	-151.1150
1925.000000	97.368	-151.4211
1950.000000	97.566	-152.0042
1975.000000	97.756	-152.9046
2000.000000	97.920	-154.1146
2030.000000	98.062	-155.8582
2060.000000	98.137	-157.7467
2090.000000	98.149	-159.6417
2120.000000	98.099	-161.4312
2140.000000	98.034	-162.4967
2180.000000	97.849	-164.1453
2200.000000	97.746	-164.7020
2240.000000	97.549	-165.3342
2270.000000	97.433	-165.4890
2300.000000	97.356	-165.5131
2330.000000	97.318	-165.5494
2360.000000	97.307	-165.7205
2400.000000	97.300	-166.2417
2430.000000	97.277	-166.7849
2470.000000	97.211	-167.5314
2500.000000	97.139	-168.0040
2540.000000	97.027	-168.4037
2580.000000	96.927	-168.5314
2620.000000	96.864	-168.5612
2650.000000	96.835	-168.6344
2690.000000	96.806	-168.8459
2720.000000	96.785	-169.0672
2760.000000	96.756	-169.4318
2800.000000	96.724	-169.8983
2850.000000	96.664	-170.6361
2900.000000	96.565	-171.4881
2950.000000	96.412	-172.2743
3000.000000	96.215	-172.8166
3040.000000	96.034	-172.9888
3070.000000	95.892	-172.9188
3110.000000	95.713	-172.5431
3150.000000	95.568	-171.9307
3200.000000	95.448	-171.0812
3250.000000	95.378	-170.3762
3300.000000	95.322	-169.8859
3350.000000	95.256	-169.4927
3400.000000	95.179	-169.0600
3450.000000	95.103	-168.5168
3500.000000	95.041	-167.8441
3550.000000	95.011	-167.1164
3600.000000	95.014	-166.4733
3650.000000	95.039	-166.0269
3700.000000	95.065	-165.8098
3750.000000	95.079	-165.7882
3820.000000	95.056	-165.9930
3870.000000	94.996	-166.1724
3950.000000	94.838	-166.2010
4000.000000	94.717	-166.0115
4060.000000	94.546	-165.5037
4120.000000	94.366	-164.4594
4180.000000	94.245	-162.8402
4250.000000	94.246	-160.8046
4310.000000	94.334	-159.4565
4370.000000	94.441	-158.6013
4440.000000	94.531	-158.0068
4500.000000	94.571	-157.5429
4550.000000	94.594	-157.0476
4620.000000	94.642	-156.1970
4680.000000	94.711	-155.4242
4750.000000	94.826	-154.5963
4820.000000	94.971	-153.9541
4870.000000	95.085	-153.6472
4940.000000	95.250	-153.4502
5000.000000	95.386	-153.5056
5080.000000	95.542	-153.8470
5150.000000	95.654	-154.3104
5220.000000	95.743	-154.9052
5300.000000	95.809	-155.7441
5380.000000	95.823	-156.6701
5450.000000	95.787	-157.4177
5520.000000	95.716	-157.9683
5600.000000	95.621	-158.3001
5700.000000	95.519	-158.4693
5800.000000	95.423	-158.7134
5900.000000	95.269	-159.0049
6000.000000	95.031	-158.8717
6080.000000	94.801	-158.1481
6150.000000	94.603	-156.9081
6220.000000	94.454	-155.0851
6300.000000	94.406	-152.5401
6400.000000	94.557	-149.4452
6500.000000	94.854	-147.1702
6600.000000	95.179	-145.8086
6700.000000	95.474	-145.0328
6800.000000	95.734	-144.4641
6900.000000	95.985	-143.8573
7000.000000	96.265	-143.1518
7100.000000	96.605	-142.4611
7200.000000	97.011	-142.0073
7300.000000	97.464	-141.9895
7400.000000	97.942	-142.4517
7500.000000	98.444	-143.3050
7620.000000	99.119	-144.8692
7750.000000	99.943	-147.9666
7880.000000	100.694	-153.6427
8000.000000	101.108	-161.1551
8120.000000	101.148	-169.6761
8250.000000	100.775	-178.4092
8380.000000	100.047	174.6675
8500.000000	99.165	170.4780
8620.000000	98.194	168.4797
8750.000000	97.171	168.5453
8850.000000	96.491	169.8973
9000.000000	95.819	173.1295
9120.000000	95.655	175.4366
9250.000000	95.704	176.1926
9380.000000	95.684	175.0256
9500.000000	95.442	173.5423
9620.000000	95.020	173.0013
9750.000000	94.511	174.0886
9880.000000	94.134	176.6906
10000.000000	94.036	179.7805
10150.000000	94.311	-176.6022
10300.000000	94.935	-174.4752
10440.000000	95.668	-174.6175
10600.000000	96.483	-177.6891
10750.000000	97.074	176.6914
10900.000000	97.384	168.9520
11060.000000	97.338	159.4292
11200.000000	96.976	151.0039
11380.000000	96.113	141.1493
11500.000000	95.325	135.5880
11720.000000	93.504	128.2259
11800.000000	92.731	126.6938
12060.000000	89.916	127.0098
12200.000000	88.330	130.6064
12410.000000	86.182	139.3484
12500.000000	85.443	143.7650
12650.000000	84.527	151.2577
12800.000000	83.991	158.3128
13150.000000	83.639	171.3472
13200.000000	83.632	172.8233
13400.000000	83.607	178.1942
13600.000000	83.592	-176.4474
13800.000000	83.743	-170.4769
14000.000000	84.225	-164.6716
14300.000000	85.328	-159.3972
14500.000000	86.007	-158.5881
14750.000000	86.679	-159.2915
15000.000000	87.232	-160.7811
15250.000000	87.764	-162.8096
15500.000000	88.320	-165.6706
15750.000000	88.896	-169.8562
16000.000000	89.439	-175.9394
16250.000000	89.844	175.5819
16500.000000	89.968	164.6292
16750.000000	89.666	151.9957
17000.000000	88.854	139.3736
17250.000000	87.544	128.5866
17500.000000	85.834	120.6661
17750.000000	83.853	115.7186
18000.000000	81.712	113.4803
18250.000000	79.476	113.8153
18500.000000	77.186	116.8424
18750.000000	74.888	122.7321
19000.000000	72.681	131.2587
19250.000000	70.727	141.5493
19500.000000	69.176	152.4545
19750.000000	68.051	163.1620
20000.000000	67.255	173.3729
