* Measurement data measured by REW V5.20.11
* Source: Mic in at front panel (Pink) (Realtek(R) Audio), MICROPHONE (Master Volume), L, volume: 0.250
* Format: 256k Log Swept Sine, 1 sweep at -12.0 dBFS with no timing reference
* Dated: Sep 20, 2022 10:42:01 AM
* REW Settings:
*  C-weighting compensation: Off
*  Target level: 75.0 dB
* Note: T2 DLC MP
* Measurement: KZ EDX Ultra Sep 20
* Smoothing: 1/12 octave
* Frequency Step: 1/48 octave
* Start Frequency: 20.000 Hz
*
* Freq(Hz)	SPL(dB)	Phase(degrees)
20.000000	97.025	-152.8540
20.299999	97.041	-153.6161
20.600000	97.055	-154.3637
20.900000	97.068	-155.0950
21.200001	97.079	-155.8085
21.400000	97.086	-156.2747
21.799999	97.099	-157.1887
22.000000	97.106	-157.6387
22.400000	97.118	-158.5297
22.700001	97.126	-159.1915
23.000000	97.132	-159.8468
23.299999	97.137	-160.4934
23.600000	97.141	-161.1295
24.000000	97.144	-161.9604
24.299999	97.146	-162.5712
24.700001	97.147	-163.3703
25.000000	97.146	-163.9578
25.400000	97.144	-164.7232
25.799999	97.140	-165.4653
26.200001	97.136	-166.1843
26.500000	97.132	-166.7111
26.900000	97.126	-167.4010
27.200001	97.121	-167.9108
27.600000	97.113	-168.5796
28.000000	97.103	-169.2313
28.500000	97.088	-170.0166
29.000000	97.072	-170.7742
29.500000	97.056	-171.5179
30.000000	97.039	-172.2560
30.400000	97.023	-172.8382
30.700001	97.010	-173.2662
31.100000	96.993	-173.8245
31.500000	96.977	-174.3748
32.000000	96.957	-175.0652
32.500000	96.935	-175.7595
33.000000	96.910	-176.4350
33.500000	96.884	-177.0712
34.000000	96.862	-177.6815
34.500000	96.842	-178.3034
35.000000	96.819	-178.9472
35.500000	96.786	-179.5682
36.000000	96.747	179.8939
36.500000	96.711	179.4483
37.000000	96.687	179.0361
37.500000	96.670	178.5886
38.200001	96.642	177.8829
38.700001	96.611	177.3809
39.500000	96.559	176.6621
40.000000	96.533	176.2268
40.599998	96.506	175.6564
41.200001	96.476	175.0203
41.799999	96.437	174.3528
42.500000	96.379	173.5890
43.099998	96.321	172.9856
43.700001	96.258	172.4758
44.400002	96.189	172.0490
45.000000	96.149	171.7980
45.500000	96.134	171.5851
46.200001	96.130	171.1601
46.799999	96.121	170.6663
47.500000	96.089	170.0535
48.200001	96.040	169.5027
48.700001	96.002	169.1556
49.400002	95.946	168.7144
50.000000	95.899	168.3654
50.799999	95.839	167.9168
51.500000	95.789	167.5164
52.200001	95.737	167.1150
53.000000	95.676	166.6806
53.799999	95.619	166.2675
54.500000	95.569	165.9116
55.200001	95.517	165.5753
56.000000	95.456	165.2398
57.000000	95.385	164.8806
58.000000	95.321	164.5316
59.000000	95.260	164.1552
60.000000	95.199	163.7597
60.799999	95.150	163.4456
61.500000	95.108	163.1710
62.200001	95.068	162.8951
63.000000	95.023	162.5826
64.000000	94.967	162.1985
65.000000	94.908	161.8211
66.000000	94.844	161.4641
67.000000	94.776	161.1417
68.000000	94.709	160.8482
69.000000	94.649	160.5480
70.000000	94.595	160.2031
71.000000	94.545	159.7984
72.000000	94.492	159.3424
73.000000	94.427	158.9219
74.000000	94.358	158.6447
75.000000	94.303	158.4786
76.199997	94.250	158.2815
77.500000	94.191	158.0159
78.800003	94.122	157.7245
80.000000	94.053	157.4382
81.199997	93.983	157.1187
82.500000	93.905	156.7402
83.800003	93.824	156.3656
85.000000	93.745	156.0694
86.199997	93.663	155.8465
87.500000	93.573	155.6829
88.500000	93.504	155.5966
90.000000	93.404	155.4922
91.199997	93.331	155.3813
92.500000	93.255	155.1942
93.800003	93.176	154.9741
95.000000	93.104	154.7869
96.199997	93.035	154.6215
97.500000	92.964	154.4581
98.800003	92.894	154.3134
100.000000	92.830	154.2066
101.500000	92.749	154.1133
103.000000	92.670	154.0487
104.400002	92.598	153.9898
106.000000	92.519	153.9018
107.500000	92.447	153.8005
109.000000	92.378	153.7011
110.599998	92.306	153.6066
112.000000	92.240	153.5182
113.800003	92.141	153.3605
115.000000	92.063	153.2099
117.199997	91.905	152.8600
118.000000	91.846	152.7485
120.599998	91.680	152.7310
122.000000	91.629	152.9172
124.099998	91.580	153.2001
125.000000	91.557	153.2922
126.500000	91.510	153.4018
128.000000	91.455	153.4622
131.500000	91.320	153.4828
132.000000	91.301	153.4827
134.000000	91.222	153.5099
136.000000	91.139	153.5951
138.000000	91.056	153.7278
140.000000	90.973	153.8979
143.000000	90.858	154.1385
145.000000	90.783	154.1718
147.500000	90.673	154.0873
150.000000	90.548	154.0706
152.500000	90.429	154.1981
155.000000	90.319	154.4524
157.500000	90.221	154.8215
160.000000	90.125	155.2287
162.500000	90.020	155.6172
165.000000	89.912	155.9751
167.500000	89.811	156.3591
170.000000	89.719	156.8603
172.500000	89.641	157.5072
175.000000	89.581	158.2828
177.500000	89.549	159.1384
180.000000	89.557	159.9518
182.500000	89.604	160.5585
185.000000	89.670	160.8602
187.500000	89.729	160.8965
190.000000	89.765	160.7681
192.500000	89.774	160.5577
195.000000	89.757	160.3312
197.500000	89.721	160.1374
200.000000	89.669	160.0064
203.000000	89.598	159.9231
206.000000	89.528	159.8745
209.000000	89.457	159.8531
212.000000	89.383	159.8918
214.000000	89.330	159.9639
218.000000	89.222	160.2123
220.000000	89.172	160.3583
224.000000	89.088	160.6091
227.000000	89.032	160.7771
230.000000	88.978	160.9576
233.000000	88.922	161.1426
236.000000	88.867	161.3250
240.000000	88.795	161.5778
243.000000	88.739	161.7851
247.000000	88.662	162.0939
250.000000	88.604	162.3596
254.000000	88.531	162.7664
258.000000	88.471	163.1923
262.000000	88.421	163.5670
265.000000	88.384	163.8105
269.000000	88.329	164.1306
272.000000	88.286	164.3923
276.000000	88.232	164.7727
280.000000	88.185	165.1718
285.000000	88.138	165.6594
290.000000	88.101	166.0685
295.000000	88.058	166.3815
300.000000	88.002	166.6789
304.000000	87.954	166.9456
307.000000	87.919	167.1619
311.000000	87.874	167.4616
315.000000	87.828	167.7672
320.000000	87.770	168.1685
325.000000	87.715	168.6040
330.000000	87.665	169.0570
335.000000	87.621	169.5011
340.000000	87.579	169.9216
345.000000	87.538	170.3265
350.000000	87.496	170.7349
355.000000	87.455	171.1530
360.000000	87.415	171.5753
365.000000	87.378	171.9967
370.000000	87.341	172.4173
375.000000	87.306	172.8391
382.000000	87.259	173.4318
387.000000	87.228	173.8544
395.000000	87.181	174.5289
400.000000	87.153	174.9491
406.000000	87.123	175.4455
412.000000	87.092	175.9292
418.000000	87.061	176.4152
425.000000	87.026	177.0104
431.000000	87.002	177.5386
437.000000	86.984	178.0579
444.000000	86.970	178.6338
450.000000	86.961	179.0856
455.000000	86.955	179.4161
462.000000	86.938	179.8237
468.000000	86.915	-179.8243
475.000000	86.884	-179.3701
482.000000	86.854	-178.8881
487.000000	86.833	-178.5411
494.000000	86.802	-178.0372
500.000000	86.778	-177.5762
508.000000	86.752	-176.9526
515.000000	86.733	-176.4287
522.000000	86.713	-175.9158
530.000000	86.689	-175.3127
538.000000	86.668	-174.6875
545.000000	86.654	-174.1383
552.000000	86.642	-173.5930
560.000000	86.631	-172.9853
570.000000	86.617	-172.2560
580.000000	86.603	-171.5314
590.000000	86.587	-170.7923
600.000000	86.574	-170.0266
608.000000	86.567	-169.4078
615.000000	86.562	-168.8730
622.000000	86.556	-168.3345
630.000000	86.550	-167.6939
640.000000	86.551	-166.8605
650.000000	86.561	-166.0201
660.000000	86.583	-165.2021
670.000000	86.614	-164.4653
680.000000	86.642	-163.8130
690.000000	86.661	-163.1856
700.000000	86.674	-162.5388
710.000000	86.688	-161.8642
720.000000	86.704	-161.1793
730.000000	86.722	-160.4929
740.000000	86.742	-159.8020
750.000000	86.763	-159.1043
762.000000	86.792	-158.2564
775.000000	86.829	-157.3289
788.000000	86.871	-156.3985
800.000000	86.915	-155.5281
812.000000	86.970	-154.6494
825.000000	87.045	-153.7490
838.000000	87.125	-152.9640
850.000000	87.192	-152.3145
862.000000	87.252	-151.6785
875.000000	87.314	-150.9705
885.000000	87.362	-150.4111
900.000000	87.439	-149.5691
912.000000	87.503	-148.8938
925.000000	87.578	-148.1657
938.000000	87.658	-147.4604
950.000000	87.734	-146.8402
962.000000	87.810	-146.2430
975.000000	87.892	-145.6080
988.000000	87.975	-144.9774
1000.000000	88.053	-144.3919
1015.000000	88.155	-143.6385
1030.000000	88.270	-142.8810
1044.000000	88.391	-142.2305
1060.000000	88.534	-141.6106
1075.000000	88.664	-141.1225
1090.000000	88.788	-140.6768
1106.000000	88.919	-140.2326
1120.000000	89.031	-139.8677
1138.000000	89.173	-139.4211
1150.000000	89.267	-139.1334
1172.000000	89.443	-138.6261
1180.000000	89.510	-138.4510
1206.000000	89.736	-137.9960
1220.000000	89.856	-137.8685
1241.000000	90.018	-137.7738
1250.000000	90.081	-137.7356
1265.000000	90.182	-137.6570
1280.000000	90.283	-137.5723
1315.000000	90.515	-137.4428
1320.000000	90.547	-137.4363
1340.000000	90.669	-137.4343
1360.000000	90.781	-137.4463
1380.000000	90.884	-137.4331
1400.000000	90.984	-137.3644
1430.000000	91.147	-137.2384
1450.000000	91.258	-137.2244
1475.000000	91.386	-137.2648
1500.000000	91.502	-137.3073
1525.000000	91.610	-137.3091
1550.000000	91.717	-137.2479
1575.000000	91.834	-137.1444
1600.000000	91.964	-137.0951
1625.000000	92.092	-137.1539
1650.000000	92.210	-137.2762
1675.000000	92.317	-137.4115
1700.000000	92.418	-137.5444
1725.000000	92.512	-137.6777
1750.000000	92.598	-137.7885
1775.000000	92.679	-137.8333
1800.000000	92.765	-137.8152
1825.000000	92.859	-137.7991
1850.000000	92.955	-137.8181
1875.000000	93.046	-137.8476
1900.000000	93.134	-137.8467
1925.000000	93.224	-137.7869
1950.000000	93.325	-137.6787
1975.000000	93.442	-137.5853
2000.000000	93.570	-137.5692
2030.000000	93.725	-137.6536
2060.000000	93.882	-137.8104
2090.000000	94.043	-138.0509
2120.000000	94.204	-138.4286
2140.000000	94.305	-138.7601
2180.000000	94.483	-139.5456
2200.000000	94.561	-139.9785
2240.000000	94.686	-140.8817
2270.000000	94.753	-141.5204
2300.000000	94.799	-142.0402
2330.000000	94.838	-142.3834
2360.000000	94.885	-142.5563
2400.000000	94.977	-142.6211
2430.000000	95.074	-142.6228
2470.000000	95.243	-142.6985
2500.000000	95.391	-142.9135
2540.000000	95.594	-143.4718
2580.000000	95.785	-144.2996
2620.000000	95.951	-145.3339
2650.000000	96.054	-146.1870
2690.000000	96.164	-147.3317
2720.000000	96.234	-148.1549
2760.000000	96.321	-149.2269
2800.000000	96.400	-150.3276
2850.000000	96.475	-151.7494
2900.000000	96.517	-153.1366
2950.000000	96.535	-154.3603
3000.000000	96.554	-155.4212
3040.000000	96.574	-156.2390
3070.000000	96.590	-156.8585
3110.000000	96.608	-157.6898
3150.000000	96.621	-158.5314
3200.000000	96.626	-159.6022
3250.000000	96.610	-160.6375
3300.000000	96.574	-161.5314
3350.000000	96.534	-162.2042
3400.000000	96.512	-162.7087
3450.000000	96.510	-163.1495
3500.000000	96.524	-163.5529
3550.000000	96.560	-163.9312
3600.000000	96.620	-164.3500
3650.000000	96.699	-164.8870
3700.000000	96.786	-165.5738
3750.000000	96.874	-166.3917
3820.000000	96.991	-167.7359
3870.000000	97.064	-168.7986
3950.000000	97.174	-170.5676
4000.000000	97.248	-171.7567
4060.000000	97.340	-173.3669
4120.000000	97.420	-175.2073
4180.000000	97.478	-177.2599
4250.000000	97.506	-179.8795
4310.000000	97.491	177.7697
4370.000000	97.444	175.3685
4440.000000	97.350	172.4839
4500.000000	97.228	169.9507
4550.000000	97.094	167.8378
4620.000000	96.853	164.9459
4680.000000	96.596	162.6163
4750.000000	96.248	160.1753
4820.000000	95.866	158.0474
4870.000000	95.577	156.7027
4940.000000	95.153	155.0620
5000.000000	94.774	153.8839
5080.000000	94.247	152.6828
5150.000000	93.775	152.0264
5220.000000	93.310	151.7128
5300.000000	92.798	151.6846
5380.000000	92.310	151.9238
5450.000000	91.899	152.3196
5520.000000	91.500	152.9097
5600.000000	91.066	153.8311
5700.000000	90.569	155.2764
5800.000000	90.124	156.9263
5900.000000	89.723	158.7274
6000.000000	89.362	160.7180
6080.000000	89.108	162.4312
6150.000000	88.915	163.9830
6220.000000	88.747	165.5579
6300.000000	88.581	167.3833
6400.000000	88.417	169.7161
6500.000000	88.307	172.0664
6600.000000	88.252	174.3495
6700.000000	88.241	176.5311
6800.000000	88.271	178.6471
6900.000000	88.351	-179.2971
7000.000000	88.489	-177.3648
7100.000000	88.685	-175.6304
7200.000000	88.939	-174.1399
7300.000000	89.255	-172.9561
7400.000000	89.632	-172.1899
7500.000000	90.062	-171.9613
7620.000000	90.636	-172.5429
7750.000000	91.308	-174.5109
7880.000000	91.964	-178.3398
8000.000000	92.455	176.1706
8120.000000	92.724	168.8979
8250.000000	92.654	159.7400
8380.000000	92.149	150.6923
8500.000000	91.326	143.7866
8620.000000	90.260	138.9491
8750.000000	88.965	136.0355
8850.000000	87.944	135.1915
9000.000000	86.470	135.6489
9120.000000	85.385	137.0599
9250.000000	84.316	139.2966
9380.000000	83.356	142.0796
9500.000000	82.560	145.0002
9620.000000	81.842	148.1653
9750.000000	81.139	151.8264
9880.000000	80.510	155.6908
10000.000000	79.989	159.3931
10150.000000	79.411	164.1823
10300.000000	78.911	169.1459
10440.000000	78.509	173.9158
10600.000000	78.122	179.5544
10750.000000	77.832	-174.9390
10900.000000	77.619	-169.1831
11060.000000	77.498	-162.6983
11200.000000	77.520	-156.7159
11380.000000	77.794	-148.7125
11500.000000	78.176	-143.3655
11720.000000	79.328	-134.4772
11800.000000	79.866	-131.8565
12060.000000	81.776	-126.9758
12200.000000	82.752	-126.9463
12410.000000	83.982	-129.8646
12500.000000	84.406	-131.9444
12650.000000	84.973	-136.1569
12800.000000	85.368	-140.9905
13150.000000	85.633	-153.1120
13200.000000	85.598	-154.7902
13400.000000	85.294	-160.9568
13600.000000	84.766	-165.8312
13800.000000	84.089	-169.0832
14000.000000	83.348	-170.6700
14300.000000	82.293	-170.3431
14500.000000	81.724	-168.7480
14750.000000	81.257	-165.7561
15000.000000	81.139	-162.1873
15250.000000	81.467	-158.6507
15500.000000	82.342	-156.0219
15750.000000	83.756	-155.7970
16000.000000	85.454	-160.3592
16250.000000	86.942	-172.4525
16500.000000	87.681	167.2789
16750.000000	87.325	143.0104
17000.000000	85.852	121.8583
17250.000000	83.445	109.7535
17500.000000	80.306	109.7614
17750.000000	76.742	119.0393
18000.000000	73.339	130.5197
18250.000000	70.731	140.1750
18500.000000	69.049	147.8508
18750.000000	67.973	154.3766
19000.000000	67.215	160.2378
19250.000000	66.634	165.5524
19500.000000	66.165	170.2692
19750.000000	65.760	174.2935
20000.000000	65.365	177.5633
