* Measurement data measured by REW V5.20.13
* Source: EXCL: Mic in at front panel (Pink) (Realtek(R) Audio), MICROPHONE (Master Volume), L, volume: 0.250
* Format: 256k Log Swept Sine, 1 sweep at -12.0 dBFS with no timing reference
* Dated: Dec 22, 2022 1:04:00 PM
* REW Settings:
*  C-weighting compensation: Off
*  Target level: 75.0 dB
* Note: Tinhifi C3 R
* Measurement: Tinhifi C3 R
* Smoothing: 1/12 octave
* Frequency Step: 1/48 octave
* Start Frequency: 20.000 Hz
*
* Freq(Hz)	SPL(dB)	Phase(degrees)
20.000000	96.486	-154.9676
20.299999	96.505	-155.6915
20.600000	96.520	-156.4127
20.900000	96.531	-157.1215
21.200001	96.538	-157.8063
21.400000	96.542	-158.2467
21.799999	96.549	-159.0951
22.000000	96.553	-159.5087
22.400000	96.562	-160.3297
22.700001	96.567	-160.9468
23.000000	96.569	-161.5617
23.299999	96.568	-162.1629
23.600000	96.564	-162.7404
24.000000	96.557	-163.4656
24.299999	96.553	-163.9810
24.700001	96.550	-164.6472
25.000000	96.548	-165.1409
25.400000	96.543	-165.7900
25.799999	96.536	-166.4074
26.200001	96.527	-166.9683
26.500000	96.524	-167.3504
26.900000	96.528	-167.8289
27.200001	96.537	-168.1901
27.600000	96.556	-168.7065
28.000000	96.576	-169.2789
28.500000	96.595	-170.0533
29.000000	96.603	-170.8412
29.500000	96.604	-171.6079
30.000000	96.601	-172.3488
30.400000	96.595	-172.9254
30.700001	96.589	-173.3465
31.100000	96.578	-173.8866
31.500000	96.567	-174.3996
32.000000	96.554	-175.0106
32.500000	96.542	-175.6105
33.000000	96.531	-176.2215
33.500000	96.514	-176.8446
34.000000	96.490	-177.4546
34.500000	96.457	-178.0107
35.000000	96.422	-178.4850
35.500000	96.394	-178.8896
36.000000	96.377	-179.2806
36.500000	96.368	-179.7195
37.000000	96.358	179.7736
37.500000	96.338	179.2360
38.200001	96.300	178.5321
38.700001	96.274	178.0801
39.500000	96.245	177.3467
40.000000	96.228	176.8450
40.599998	96.203	176.2201
41.200001	96.172	175.6115
41.799999	96.140	175.0337
42.500000	96.103	174.3942
43.099998	96.072	173.8715
43.700001	96.042	173.3652
44.400002	96.005	172.7880
45.000000	95.970	172.3174
45.500000	95.940	171.9570
46.200001	95.900	171.4919
46.799999	95.870	171.0909
47.500000	95.832	170.5875
48.200001	95.786	170.0834
48.700001	95.749	169.7534
49.400002	95.698	169.3301
50.000000	95.657	168.9771
50.799999	95.598	168.5397
51.500000	95.548	168.2490
52.200001	95.514	168.0268
53.000000	95.495	167.7306
53.799999	95.480	167.3231
54.500000	95.456	166.9335
55.200001	95.425	166.5713
56.000000	95.387	166.1927
57.000000	95.338	165.7267
58.000000	95.284	165.2462
59.000000	95.227	164.7568
60.000000	95.173	164.2469
60.799999	95.131	163.8061
61.500000	95.092	163.4068
62.200001	95.051	163.0231
63.000000	95.004	162.6280
64.000000	94.948	162.2019
65.000000	94.894	161.8460
66.000000	94.841	161.5552
67.000000	94.789	161.2856
68.000000	94.730	161.0002
69.000000	94.662	160.7078
70.000000	94.589	160.4006
71.000000	94.511	160.0645
72.000000	94.430	159.7430
73.000000	94.358	159.4943
74.000000	94.311	159.2679
75.000000	94.286	158.9551
76.199997	94.258	158.4788
77.500000	94.219	157.9801
78.800003	94.173	157.5515
80.000000	94.127	157.1783
81.199997	94.074	156.7817
82.500000	94.009	156.3106
83.800003	93.933	155.8239
85.000000	93.857	155.4229
86.199997	93.782	155.1008
87.500000	93.702	154.8292
88.500000	93.639	154.6622
90.000000	93.543	154.4413
91.199997	93.466	154.2454
92.500000	93.384	153.9958
93.800003	93.305	153.7446
95.000000	93.238	153.5489
96.199997	93.174	153.4000
97.500000	93.102	153.2802
98.800003	93.020	153.1718
100.000000	92.939	153.0521
101.500000	92.840	152.8713
103.000000	92.756	152.7139
104.400002	92.697	152.6798
106.000000	92.640	152.8423
107.500000	92.586	153.0840
109.000000	92.526	153.1877
110.599998	92.466	153.0008
112.000000	92.430	152.6935
113.800003	92.416	152.6018
115.000000	92.416	153.0376
117.199997	92.423	155.0732
118.000000	92.440	155.9563
120.599998	92.484	156.5890
122.000000	92.372	155.1437
124.099998	92.077	152.6697
125.000000	91.968	151.9201
126.500000	91.843	151.2043
128.000000	91.757	151.0370
131.500000	91.568	151.2243
132.000000	91.543	151.1945
134.000000	91.455	150.9601
136.000000	91.386	150.8371
138.000000	91.306	150.9587
140.000000	91.191	151.1014
143.000000	91.006	151.0093
145.000000	90.930	150.7708
147.500000	90.848	150.2833
150.000000	90.703	149.8027
152.500000	90.552	149.7385
155.000000	90.494	150.0098
157.500000	90.474	150.4042
160.000000	90.434	150.8041
162.500000	90.373	151.0054
165.000000	90.305	151.0581
167.500000	90.231	151.1484
170.000000	90.149	151.3176
172.500000	90.062	151.4771
175.000000	89.977	151.5995
177.500000	89.893	151.7404
180.000000	89.811	151.9326
182.500000	89.731	152.1479
185.000000	89.658	152.3341
187.500000	89.592	152.4681
190.000000	89.527	152.5664
192.500000	89.456	152.6463
195.000000	89.377	152.7207
197.500000	89.294	152.8028
200.000000	89.210	152.9197
203.000000	89.116	153.1560
206.000000	89.032	153.4874
209.000000	88.949	153.8495
212.000000	88.863	154.2150
214.000000	88.809	154.4722
218.000000	88.723	155.0886
220.000000	88.691	155.4672
224.000000	88.632	156.3478
227.000000	88.599	157.0179
230.000000	88.591	157.5587
233.000000	88.601	157.9055
236.000000	88.614	158.0549
240.000000	88.612	158.0222
243.000000	88.588	157.9268
247.000000	88.529	157.8385
250.000000	88.471	157.8463
254.000000	88.387	157.9704
258.000000	88.308	158.1758
262.000000	88.234	158.3807
265.000000	88.176	158.5269
269.000000	88.100	158.7682
272.000000	88.048	159.0057
276.000000	87.986	159.3564
280.000000	87.932	159.6984
285.000000	87.872	160.1024
290.000000	87.819	160.4382
295.000000	87.760	160.6873
300.000000	87.687	160.9291
304.000000	87.626	161.1620
307.000000	87.580	161.3581
311.000000	87.521	161.6353
315.000000	87.462	161.9226
320.000000	87.387	162.3024
325.000000	87.315	162.7198
330.000000	87.249	163.1624
335.000000	87.190	163.6025
340.000000	87.133	164.0287
345.000000	87.077	164.4492
350.000000	87.019	164.8769
355.000000	86.964	165.3138
360.000000	86.911	165.7564
365.000000	86.860	166.2036
370.000000	86.811	166.6560
375.000000	86.764	167.1154
382.000000	86.700	167.7681
387.000000	86.655	168.2372
395.000000	86.588	168.9911
400.000000	86.548	169.4638
406.000000	86.503	170.0266
412.000000	86.458	170.5817
418.000000	86.414	171.1442
425.000000	86.364	171.8335
431.000000	86.328	172.4456
437.000000	86.299	173.0531
444.000000	86.272	173.7398
450.000000	86.254	174.2935
455.000000	86.239	174.7127
462.000000	86.213	175.2487
468.000000	86.181	175.7160
475.000000	86.141	176.3117
482.000000	86.104	176.9417
487.000000	86.079	177.3977
494.000000	86.042	178.0590
500.000000	86.014	178.6601
508.000000	85.985	179.4788
515.000000	85.964	-179.8188
522.000000	85.943	-179.1211
530.000000	85.921	-178.3003
538.000000	85.904	-177.4526
545.000000	85.895	-176.7054
552.000000	85.891	-175.9587
560.000000	85.892	-175.1159
570.000000	85.899	-174.0856
580.000000	85.908	-173.0585
590.000000	85.921	-172.0217
600.000000	85.941	-170.9654
608.000000	85.965	-170.1203
615.000000	85.990	-169.3934
622.000000	86.017	-168.6703
630.000000	86.052	-167.8313
640.000000	86.108	-166.7740
650.000000	86.178	-165.7415
660.000000	86.264	-164.7667
670.000000	86.362	-163.9113
680.000000	86.459	-163.1823
690.000000	86.549	-162.5235
700.000000	86.635	-161.8908
710.000000	86.721	-161.2753
720.000000	86.808	-160.6960
730.000000	86.895	-160.1616
740.000000	86.979	-159.6646
750.000000	87.060	-159.1975
762.000000	87.154	-158.6678
775.000000	87.251	-158.1216
788.000000	87.342	-157.5878
800.000000	87.420	-157.0721
812.000000	87.500	-156.5103
825.000000	87.595	-155.8773
838.000000	87.699	-155.2589
850.000000	87.802	-154.6970
862.000000	87.918	-154.1640
875.000000	88.056	-153.6977
885.000000	88.164	-153.4524
900.000000	88.313	-153.2490
912.000000	88.415	-153.1625
925.000000	88.511	-153.0885
938.000000	88.594	-153.0078
950.000000	88.661	-152.9108
962.000000	88.721	-152.7764
975.000000	88.782	-152.5797
988.000000	88.843	-152.3346
1000.000000	88.901	-152.0693
1015.000000	88.978	-151.6812
1030.000000	89.069	-151.2622
1044.000000	89.167	-150.9121
1060.000000	89.284	-150.6220
1075.000000	89.387	-150.4292
1090.000000	89.484	-150.2613
1106.000000	89.581	-150.0894
1120.000000	89.664	-149.9418
1138.000000	89.766	-149.7487
1150.000000	89.833	-149.6135
1172.000000	89.956	-149.3404
1180.000000	90.003	-149.2317
1206.000000	90.168	-148.9124
1220.000000	90.260	-148.8187
1241.000000	90.389	-148.7720
1250.000000	90.439	-148.7648
1265.000000	90.517	-148.7487
1280.000000	90.591	-148.7194
1315.000000	90.757	-148.5955
1320.000000	90.780	-148.5759
1340.000000	90.871	-148.4997
1360.000000	90.957	-148.4107
1380.000000	91.039	-148.2749
1400.000000	91.124	-148.0692
1430.000000	91.276	-147.7315
1450.000000	91.386	-147.5824
1475.000000	91.519	-147.4692
1500.000000	91.645	-147.3812
1525.000000	91.765	-147.2766
1550.000000	91.888	-147.1264
1575.000000	92.021	-146.9447
1600.000000	92.169	-146.8244
1625.000000	92.317	-146.8184
1650.000000	92.457	-146.8815
1675.000000	92.590	-146.9632
1700.000000	92.719	-147.0499
1725.000000	92.845	-147.1481
1750.000000	92.965	-147.2396
1775.000000	93.085	-147.2863
1800.000000	93.213	-147.2952
1825.000000	93.352	-147.3368
1850.000000	93.495	-147.4541
1875.000000	93.635	-147.6349
1900.000000	93.770	-147.8461
1925.000000	93.901	-148.0543
1950.000000	94.037	-148.2504
1975.000000	94.180	-148.4739
2000.000000	94.328	-148.7755
2030.000000	94.500	-149.2464
2060.000000	94.662	-149.7947
2090.000000	94.815	-150.3889
2120.000000	94.958	-151.0135
2140.000000	95.049	-151.4308
2180.000000	95.227	-152.2398
2200.000000	95.319	-152.6554
2240.000000	95.502	-153.5858
2270.000000	95.629	-154.3677
2300.000000	95.744	-155.1746
2330.000000	95.852	-155.9667
2360.000000	95.960	-156.7578
2400.000000	96.104	-157.8923
2430.000000	96.204	-158.8242
2470.000000	96.320	-160.1545
2500.000000	96.389	-161.1943
2540.000000	96.456	-162.5662
2580.000000	96.504	-163.8612
2620.000000	96.540	-165.1086
2650.000000	96.556	-166.0259
2690.000000	96.562	-167.1840
2720.000000	96.558	-167.9696
2760.000000	96.551	-168.9158
2800.000000	96.545	-169.7944
2850.000000	96.532	-170.8163
2900.000000	96.513	-171.7115
2950.000000	96.498	-172.4068
3000.000000	96.514	-172.9605
3040.000000	96.551	-173.4272
3070.000000	96.588	-173.8324
3110.000000	96.644	-174.4576
3150.000000	96.704	-175.1932
3200.000000	96.774	-176.2852
3250.000000	96.822	-177.5318
3300.000000	96.840	-178.8373
3350.000000	96.832	179.9141
3400.000000	96.812	178.7571
3450.000000	96.783	177.6757
3500.000000	96.750	176.6894
3550.000000	96.723	175.7895
3600.000000	96.709	174.9041
3650.000000	96.704	173.9608
3700.000000	96.698	172.9420
3750.000000	96.687	171.8738
3820.000000	96.663	170.3002
3870.000000	96.637	169.1319
3950.000000	96.585	167.2395
4000.000000	96.553	165.9924
4060.000000	96.509	164.3468
4120.000000	96.443	162.5330
4180.000000	96.346	160.5912
4250.000000	96.184	158.2302
4310.000000	95.997	156.2300
4370.000000	95.773	154.3135
4440.000000	95.472	152.1740
4500.000000	95.176	150.4317
4550.000000	94.899	149.0800
4620.000000	94.467	147.4006
4680.000000	94.053	146.2418
4750.000000	93.530	145.3167
4820.000000	92.983	144.8648
4870.000000	92.584	144.8160
4940.000000	92.018	145.1310
5000.000000	91.529	145.7673
5080.000000	90.876	147.2010
5150.000000	90.316	149.0731
5220.000000	89.789	151.5182
5300.000000	89.256	154.9395
5380.000000	88.818	158.9265
5450.000000	88.531	162.7834
5520.000000	88.352	166.8937
5600.000000	88.302	171.7103
5700.000000	88.483	177.4244
5800.000000	88.883	-177.8017
5900.000000	89.401	-174.3515
6000.000000	89.946	-172.2485
6080.000000	90.355	-171.4403
6150.000000	90.671	-171.2637
6220.000000	90.934	-171.4561
6300.000000	91.166	-171.9341
6400.000000	91.364	-172.6095
6500.000000	91.489	-173.1333
6600.000000	91.574	-173.4133
6700.000000	91.640	-173.4283
6800.000000	91.709	-173.1624
6900.000000	91.805	-172.6535
7000.000000	91.947	-172.0087
7100.000000	92.145	-171.3429
7200.000000	92.405	-170.7399
7300.000000	92.738	-170.3036
7400.000000	93.152	-170.1988
7500.000000	93.640	-170.6189
7620.000000	94.310	-172.0989
7750.000000	95.095	-175.4081
7880.000000	95.825	178.8296
8000.000000	96.297	171.0483
8120.000000	96.433	161.3661
8250.000000	96.097	150.1694
8380.000000	95.248	140.2208
8500.000000	94.094	133.4692
8620.000000	92.718	129.3918
8750.000000	91.129	127.6199
8850.000000	89.911	127.7512
9000.000000	88.175	129.7885
9120.000000	86.896	132.6132
9250.000000	85.627	136.6250
9380.000000	84.470	141.5565
9500.000000	83.500	146.9231
9620.000000	82.630	153.1181
9750.000000	81.830	160.8601
9880.000000	81.257	169.6733
10000.000000	81.037	178.5260
10150.000000	81.319	-170.2338
10300.000000	82.204	-160.2692
10440.000000	83.335	-153.5859
10600.000000	84.622	-149.9248
10750.000000	85.598	-149.9136
10900.000000	86.275	-151.9287
11060.000000	86.709	-154.8175
11200.000000	86.918	-157.2267
11380.000000	87.050	-159.8619
11500.000000	87.088	-161.3843
11720.000000	87.077	-163.9362
11800.000000	87.047	-164.8017
12060.000000	86.866	-167.2241
12200.000000	86.746	-168.2431
12410.000000	86.603	-169.6876
12500.000000	86.560	-170.4675
12650.000000	86.481	-172.2384
12800.000000	86.330	-174.6178
13150.000000	85.393	-179.7634
13200.000000	85.202	179.8541
13400.000000	84.395	179.3701
13600.000000	83.604	-179.7854
13800.000000	82.887	-178.0085
14000.000000	82.270	-175.5227
14300.000000	81.594	-170.9014
14500.000000	81.354	-167.6010
14750.000000	81.336	-163.7836
15000.000000	81.654	-161.0875
15250.000000	82.260	-160.7517
15500.000000	82.956	-164.3084
15750.000000	83.405	-172.7247
16000.000000	83.258	175.1312
16250.000000	82.311	163.0216
16500.000000	80.575	155.3387
16750.000000	78.271	154.1059
17000.000000	75.790	157.8120
17250.000000	73.510	163.7651
17500.000000	71.586	170.5309
17750.000000	69.976	177.7975
18000.000000	68.610	-174.4496
18250.000000	67.446	-166.2925
18500.000000	66.471	-157.8776
18750.000000	65.684	-149.3458
19000.000000	65.079	-140.8232
19250.000000	64.643	-132.4320
19500.000000	64.357	-124.2948
19750.000000	64.207	-116.5504
20000.000000	64.174	-109.4325
