* Measurement data measured by REW V5.20.13
* Source: EXCL: Mic in at front panel (Pink) (Realtek(R) Audio), MICROPHONE (Master Volume), L, volume: 0.250
* Format: 256k Log Swept Sine, 1 sweep at -12.0 dBFS with no timing reference
* Dated: Nov 12, 2022 12:38:21 AM
* REW Settings:
*  C-weighting compensation: Off
*  Target level: 75.0 dB
* Note: TRI iOne R
* Measurement: TRI iOne R
* Smoothing: 1/12 octave
* Frequency Step: 1/48 octave
* Start Frequency: 20.000 Hz
*
* Freq(Hz)	SPL(dB)	Phase(degrees)
20.000000	103.076	-164.3761
20.299999	103.081	-164.9956
20.600000	103.084	-165.6068
20.900000	103.087	-166.2088
21.200001	103.088	-166.7997
21.400000	103.089	-167.1863
21.799999	103.088	-167.9413
22.000000	103.087	-168.3098
22.400000	103.084	-169.0302
22.700001	103.082	-169.5585
23.000000	103.080	-170.0786
23.299999	103.077	-170.5913
23.600000	103.073	-171.0962
24.000000	103.067	-171.7555
24.299999	103.062	-172.2379
24.700001	103.054	-172.8645
25.000000	103.047	-173.3234
25.400000	103.039	-173.9241
25.799999	103.031	-174.5163
26.200001	103.021	-175.1021
26.500000	103.013	-175.5361
26.900000	103.001	-176.1047
27.200001	102.991	-176.5218
27.600000	102.978	-177.0645
28.000000	102.964	-177.5937
28.500000	102.946	-178.2413
29.000000	102.929	-178.8777
29.500000	102.911	-179.5034
30.000000	102.892	179.8826
30.400000	102.876	179.3994
30.700001	102.865	179.0410
31.100000	102.849	178.5678
31.500000	102.832	178.1000
32.000000	102.810	177.5245
32.500000	102.787	176.9607
33.000000	102.764	176.4091
33.500000	102.739	175.8694
34.000000	102.713	175.3423
34.500000	102.687	174.8292
35.000000	102.660	174.3294
35.500000	102.633	173.8401
36.000000	102.605	173.3600
36.500000	102.576	172.8908
37.000000	102.546	172.4359
37.500000	102.515	171.9968
38.200001	102.470	171.4113
38.700001	102.438	171.0173
39.500000	102.390	170.4305
40.000000	102.363	170.0793
40.599998	102.335	169.6533
41.200001	102.309	169.2112
41.799999	102.283	168.7567
42.500000	102.250	168.2205
43.099998	102.221	167.7591
43.700001	102.190	167.2987
44.400002	102.151	166.7698
45.000000	102.117	166.3260
45.500000	102.087	165.9606
46.200001	102.044	165.4567
46.799999	102.004	165.0408
47.500000	101.956	164.5829
48.200001	101.909	164.1447
48.700001	101.876	163.8350
49.400002	101.829	163.4060
50.000000	101.787	163.0523
50.799999	101.733	162.6051
51.500000	101.686	162.2220
52.200001	101.639	161.8379
53.000000	101.581	161.4153
53.799999	101.519	161.0377
54.500000	101.466	160.7485
55.200001	101.416	160.4890
56.000000	101.362	160.2182
57.000000	101.302	159.8996
58.000000	101.250	159.5691
59.000000	101.204	159.2076
60.000000	101.160	158.8115
60.799999	101.127	158.4651
61.500000	101.096	158.1435
62.200001	101.063	157.8135
63.000000	101.023	157.4370
64.000000	100.970	156.9772
65.000000	100.914	156.5328
66.000000	100.855	156.1074
67.000000	100.793	155.7091
68.000000	100.731	155.3446
69.000000	100.670	155.0113
70.000000	100.611	154.6984
71.000000	100.554	154.3934
72.000000	100.498	154.0852
73.000000	100.440	153.7693
74.000000	100.377	153.4689
75.000000	100.316	153.2052
76.199997	100.250	152.8979
77.500000	100.186	152.5269
78.800003	100.124	152.1320
80.000000	100.068	151.7599
81.199997	100.011	151.3819
82.500000	99.944	150.9728
83.800003	99.867	150.5775
85.000000	99.790	150.2362
86.199997	99.709	149.9238
87.500000	99.622	149.6158
88.500000	99.558	149.3986
90.000000	99.467	149.1122
91.199997	99.400	148.9201
92.500000	99.335	148.7241
93.800003	99.269	148.5016
95.000000	99.198	148.2907
96.199997	99.118	148.1154
97.500000	99.030	147.9586
98.800003	98.945	147.7980
100.000000	98.872	147.6378
101.500000	98.787	147.4354
103.000000	98.712	147.2469
104.400002	98.649	147.0897
106.000000	98.577	146.9272
107.500000	98.508	146.7768
109.000000	98.439	146.5969
110.599998	98.366	146.3469
112.000000	98.298	146.1190
113.800003	98.205	145.9455
115.000000	98.138	145.9584
117.199997	98.007	146.2668
118.000000	97.962	146.4285
120.599998	97.835	146.6449
122.000000	97.763	146.4441
124.099998	97.650	146.0072
125.000000	97.607	145.8503
126.500000	97.545	145.6780
128.000000	97.489	145.6221
131.500000	97.331	145.7567
132.000000	97.305	145.7840
134.000000	97.207	145.8471
136.000000	97.133	145.7356
138.000000	97.072	145.4551
140.000000	97.006	145.1811
143.000000	96.886	144.9814
145.000000	96.797	144.9555
147.500000	96.687	144.9379
150.000000	96.583	144.8994
152.500000	96.482	144.8816
155.000000	96.383	144.9022
157.500000	96.285	144.9395
160.000000	96.190	144.9555
162.500000	96.096	144.9370
165.000000	96.002	144.9145
167.500000	95.910	144.9351
170.000000	95.819	145.0239
172.500000	95.732	145.1607
175.000000	95.646	145.3096
177.500000	95.562	145.4501
180.000000	95.481	145.5816
182.500000	95.402	145.7093
185.000000	95.326	145.8295
187.500000	95.252	145.9335
190.000000	95.178	146.0259
192.500000	95.103	146.1198
195.000000	95.027	146.2232
197.500000	94.951	146.3412
200.000000	94.874	146.4797
203.000000	94.784	146.6699
206.000000	94.701	146.8640
209.000000	94.624	147.0458
212.000000	94.548	147.2245
214.000000	94.500	147.3560
218.000000	94.412	147.6820
220.000000	94.368	147.8651
224.000000	94.262	148.2072
227.000000	94.173	148.4216
230.000000	94.089	148.6116
233.000000	94.015	148.7995
236.000000	93.946	148.9883
240.000000	93.859	149.2448
243.000000	93.795	149.4485
247.000000	93.708	149.7367
250.000000	93.641	149.9739
254.000000	93.554	150.3303
258.000000	93.478	150.6985
262.000000	93.409	151.0154
265.000000	93.357	151.2183
269.000000	93.281	151.4896
272.000000	93.223	151.7190
276.000000	93.147	152.0621
280.000000	93.077	152.4280
285.000000	93.001	152.8754
290.000000	92.935	153.2458
295.000000	92.865	153.5274
300.000000	92.782	153.8077
304.000000	92.713	154.0695
307.000000	92.661	154.2838
311.000000	92.594	154.5790
315.000000	92.528	154.8780
320.000000	92.444	155.2722
325.000000	92.362	155.7061
330.000000	92.286	156.1636
335.000000	92.217	156.6172
340.000000	92.150	157.0521
345.000000	92.084	157.4743
350.000000	92.018	157.8994
355.000000	91.954	158.3339
360.000000	91.891	158.7747
365.000000	91.830	159.2186
370.000000	91.771	159.6652
375.000000	91.713	160.1158
382.000000	91.636	160.7529
387.000000	91.583	161.2107
395.000000	91.502	161.9459
400.000000	91.454	162.4050
406.000000	91.400	162.9485
412.000000	91.346	163.4824
418.000000	91.292	164.0225
425.000000	91.230	164.6838
431.000000	91.184	165.2703
437.000000	91.144	165.8496
444.000000	91.105	166.4977
450.000000	91.076	167.0134
455.000000	91.053	167.3990
462.000000	91.014	167.8864
468.000000	90.972	168.3092
475.000000	90.920	168.8478
482.000000	90.869	169.4145
487.000000	90.834	169.8217
494.000000	90.783	170.4099
500.000000	90.742	170.9446
508.000000	90.695	171.6688
515.000000	90.658	172.2827
522.000000	90.620	172.8879
530.000000	90.577	173.5990
538.000000	90.537	174.3316
545.000000	90.507	174.9738
552.000000	90.480	175.6126
560.000000	90.452	176.3293
570.000000	90.420	177.1974
580.000000	90.386	178.0611
590.000000	90.352	178.9396
600.000000	90.322	179.8429
608.000000	90.302	-179.4296
615.000000	90.286	-178.7991
622.000000	90.270	-178.1633
630.000000	90.252	-177.4103
640.000000	90.239	-176.4385
650.000000	90.235	-175.4632
660.000000	90.245	-174.5115
670.000000	90.262	-173.6403
680.000000	90.277	-172.8545
690.000000	90.283	-172.0952
700.000000	90.284	-171.3157
710.000000	90.285	-170.5070
720.000000	90.288	-169.6881
730.000000	90.291	-168.8659
740.000000	90.292	-168.0294
750.000000	90.293	-167.1599
762.000000	90.294	-166.0356
775.000000	90.308	-164.6772
788.000000	90.358	-163.2256
800.000000	90.439	-161.9615
812.000000	90.539	-160.8855
825.000000	90.648	-159.9256
838.000000	90.744	-159.1132
850.000000	90.819	-158.4180
862.000000	90.882	-157.7142
875.000000	90.947	-156.9153
885.000000	90.997	-156.2772
900.000000	91.076	-155.3074
912.000000	91.143	-154.5238
925.000000	91.221	-153.6747
938.000000	91.305	-152.8473
950.000000	91.385	-152.1155
962.000000	91.465	-151.4087
975.000000	91.552	-150.6570
988.000000	91.640	-149.9120
1000.000000	91.722	-149.2240
1015.000000	91.830	-148.3484
1030.000000	91.950	-147.4751
1044.000000	92.074	-146.7219
1060.000000	92.221	-145.9899
1075.000000	92.351	-145.3984
1090.000000	92.473	-144.8445
1106.000000	92.599	-144.2730
1120.000000	92.705	-143.7842
1138.000000	92.839	-143.1609
1150.000000	92.928	-142.7433
1172.000000	93.091	-141.9640
1180.000000	93.152	-141.6755
1206.000000	93.365	-140.7876
1220.000000	93.483	-140.3957
1241.000000	93.649	-139.9078
1250.000000	93.715	-139.7124
1265.000000	93.821	-139.3830
1280.000000	93.922	-139.0401
1315.000000	94.154	-138.1829
1320.000000	94.187	-138.0581
1340.000000	94.318	-137.5597
1360.000000	94.445	-137.0463
1380.000000	94.570	-136.4851
1400.000000	94.701	-135.8543
1430.000000	94.925	-134.8780
1450.000000	95.085	-134.3016
1475.000000	95.283	-133.6500
1500.000000	95.477	-133.0152
1525.000000	95.671	-132.3533
1550.000000	95.872	-131.6352
1575.000000	96.092	-130.8752
1600.000000	96.333	-130.1662
1625.000000	96.583	-129.5634
1650.000000	96.835	-129.0261
1675.000000	97.092	-128.5109
1700.000000	97.360	-128.0158
1725.000000	97.639	-127.5638
1750.000000	97.931	-127.1569
1775.000000	98.238	-126.7820
1800.000000	98.570	-126.4750
1825.000000	98.926	-126.3345
1850.000000	99.291	-126.4244
1875.000000	99.656	-126.7428
1900.000000	100.013	-127.2562
1925.000000	100.361	-127.9206
1950.000000	100.704	-128.7087
1975.000000	101.043	-129.6393
2000.000000	101.374	-130.7443
2030.000000	101.751	-132.2892
2060.000000	102.103	-134.0226
2090.000000	102.430	-135.9126
2120.000000	102.730	-137.9417
2140.000000	102.914	-139.3507
2180.000000	103.254	-142.2561
2200.000000	103.412	-143.7699
2240.000000	103.698	-146.9864
2270.000000	103.876	-149.5521
2300.000000	104.018	-152.1907
2330.000000	104.126	-154.8485
2360.000000	104.206	-157.5210
2400.000000	104.266	-161.1448
2430.000000	104.268	-163.8887
2470.000000	104.208	-167.4948
2500.000000	104.116	-170.0946
2540.000000	103.933	-173.3061
2580.000000	103.700	-176.1380
2620.000000	103.435	-178.6074
2650.000000	103.217	179.7655
2690.000000	102.904	177.9308
2720.000000	102.659	176.8342
2760.000000	102.333	175.7243
2800.000000	102.016	174.9555
2850.000000	101.638	174.4262
2900.000000	101.290	174.3659
2950.000000	100.992	174.7511
3000.000000	100.776	175.3819
3040.000000	100.661	175.8436
3070.000000	100.597	176.0976
3110.000000	100.527	176.3071
3150.000000	100.462	176.3919
3200.000000	100.377	176.3750
3250.000000	100.276	176.3112
3300.000000	100.159	176.3068
3350.000000	100.031	176.4608
3400.000000	99.908	176.7856
3450.000000	99.796	177.2501
3500.000000	99.698	177.8661
3550.000000	99.624	178.6235
3600.000000	99.580	179.4523
3650.000000	99.563	-179.7159
3700.000000	99.566	-178.8937
3750.000000	99.586	-178.0507
3820.000000	99.650	-176.8324
3870.000000	99.723	-175.9354
3950.000000	99.905	-174.4494
4000.000000	100.069	-173.5736
4060.000000	100.314	-172.7006
4120.000000	100.600	-172.0711
4180.000000	100.921	-171.7005
4250.000000	101.334	-171.6246
4310.000000	101.721	-171.8636
4370.000000	102.146	-172.4359
4440.000000	102.683	-173.6990
4500.000000	103.159	-175.4342
4550.000000	103.552	-177.4045
4620.000000	104.065	178.9645
4680.000000	104.441	175.0433
4750.000000	104.773	169.6115
4820.000000	104.957	163.4017
4870.000000	104.978	158.6353
4940.000000	104.838	151.8205
5000.000000	104.557	146.1682
5080.000000	103.971	139.4174
5150.000000	103.299	134.5947
5220.000000	102.534	130.8900
5300.000000	101.604	127.9286
5380.000000	100.662	126.1341
5450.000000	99.850	125.3846
5520.000000	99.062	125.3467
5600.000000	98.217	126.0908
5700.000000	97.301	127.7666
5800.000000	96.537	129.5805
5900.000000	95.834	131.5161
6000.000000	95.172	133.8990
6080.000000	94.693	136.1206
6150.000000	94.321	138.2162
6220.000000	93.990	140.3946
6300.000000	93.659	142.9579
6400.000000	93.310	146.2746
6500.000000	93.036	149.6927
6600.000000	92.842	153.1421
6700.000000	92.723	156.5700
6800.000000	92.677	159.9744
6900.000000	92.713	163.3326
7000.000000	92.838	166.5689
7100.000000	93.055	169.6055
7200.000000	93.369	172.3914
7300.000000	93.794	174.8436
7400.000000	94.341	176.7974
7500.000000	95.012	178.0291
7620.000000	95.966	178.1616
7750.000000	97.115	175.8796
7880.000000	98.206	170.0059
8000.000000	98.933	160.8933
8120.000000	99.193	148.9462
8250.000000	98.819	135.1188
8380.000000	97.785	123.3277
8500.000000	96.383	115.8776
8620.000000	94.740	111.8410
8750.000000	92.887	110.5325
8850.000000	91.503	111.0953
9000.000000	89.587	113.6614
9120.000000	88.221	116.6896
9250.000000	86.902	120.6168
9380.000000	85.729	125.0603
9500.000000	84.764	129.5012
9620.000000	83.900	134.1664
9750.000000	83.064	139.4147
9880.000000	82.324	144.8151
10000.000000	81.718	149.8810
10150.000000	81.051	156.2964
10300.000000	80.476	162.7994
10440.000000	80.019	168.9203
10600.000000	79.586	175.9695
10750.000000	79.266	-177.3915
10900.000000	79.031	-170.7726
11060.000000	78.870	-163.7645
11200.000000	78.807	-157.7179
11380.000000	78.826	-150.1213
11500.000000	78.900	-145.1849
11720.000000	79.156	-136.4648
11800.000000	79.287	-133.4092
12060.000000	79.847	-123.9277
12200.000000	80.236	-119.1218
12410.000000	80.948	-112.3322
12500.000000	81.305	-109.5979
12650.000000	81.978	-105.3118
12800.000000	82.761	-101.4284
13150.000000	85.060	-94.7154
13200.000000	85.440	-94.1401
13400.000000	87.038	-93.2697
13600.000000	88.650	-95.3930
13800.000000	90.075	-101.3435
14000.000000	91.109	-111.2332
14300.000000	91.659	-130.6812
14500.000000	91.382	-143.9172
14750.000000	90.523	-159.0498
15000.000000	89.237	-172.6778
15250.000000	87.400	177.4536
15500.000000	84.827	177.5973
15750.000000	81.837	-170.7349
16000.000000	79.626	-156.2362
16250.000000	79.059	-145.8710
16500.000000	79.520	-141.3636
16750.000000	80.090	-142.9090
17000.000000	80.192	-149.0119
17250.000000	79.585	-155.7965
17500.000000	78.350	-159.2717
17750.000000	76.832	-158.1781
18000.000000	75.523	-154.2962
18250.000000	74.769	-150.7304
18500.000000	74.446	-149.8057
18750.000000	74.145	-151.7102
19000.000000	73.601	-154.9329
19250.000000	72.796	-158.0176
19500.000000	71.823	-160.6162
19750.000000	70.752	-163.0804
20000.000000	69.561	-165.5458
