* Measurement data measured by REW V5.20.4
* Source: Mic in at front panel (Pink) (Realtek(R) Audio), MICROPHONE (Master Volume), L, volume: 0.250
* Format: 256k Log Swept Sine, 1 sweep at -12.0 dBFS with no timing reference
* Dated: Jul 26, 2022 9:29:16 PM
* REW Settings:
*  C-weighting compensation: Off
*  Target level: 75.0 dB
* Note: TRI KAI R
* Measurement: KZ EDX Ultra Jul 26
* Smoothing: 1/12 octave
* Frequency Step: 1/48 octave
* Start Frequency: 20.000 Hz
*
* Freq(Hz)	SPL(dB)	Phase(degrees)
20.000000	111.146	-157.7336
20.299999	111.143	-158.4228
20.600000	111.134	-159.0981
20.900000	111.123	-159.7597
21.200001	111.110	-160.4075
21.400000	111.102	-160.8319
21.799999	111.089	-161.6637
22.000000	111.084	-162.0717
22.400000	111.078	-162.8727
22.700001	111.074	-163.4613
23.000000	111.072	-164.0400
23.299999	111.069	-164.6095
23.600000	111.066	-165.1700
24.000000	111.062	-165.9036
24.299999	111.057	-166.4432
24.700001	111.047	-167.1481
25.000000	111.037	-167.6653
25.400000	111.021	-168.3398
25.799999	111.005	-168.9983
26.200001	110.988	-169.6428
26.500000	110.975	-170.1177
26.900000	110.955	-170.7394
27.200001	110.938	-171.1963
27.600000	110.913	-171.7919
28.000000	110.888	-172.3717
28.500000	110.858	-173.0763
29.000000	110.831	-173.7631
29.500000	110.805	-174.4353
30.000000	110.780	-175.0933
30.400000	110.759	-175.6086
30.700001	110.745	-175.9884
31.100000	110.727	-176.4869
31.500000	110.709	-176.9776
32.000000	110.683	-177.5818
32.500000	110.653	-178.1767
33.000000	110.622	-178.7618
33.500000	110.592	-179.3365
34.000000	110.563	-179.9002
34.500000	110.536	179.5473
35.000000	110.509	179.0069
35.500000	110.485	178.4795
36.000000	110.462	177.9657
36.500000	110.441	177.4653
37.000000	110.418	176.9774
37.500000	110.392	176.5009
38.200001	110.345	175.8522
38.700001	110.306	175.4023
39.500000	110.237	174.7050
40.000000	110.194	174.2815
40.599998	110.147	173.7844
41.200001	110.105	173.2994
41.799999	110.064	172.8264
42.500000	110.021	172.2883
43.099998	109.986	171.8376
43.700001	109.951	171.3970
44.400002	109.908	170.8959
45.000000	109.870	170.4774
45.500000	109.837	170.1363
46.200001	109.789	169.6711
46.799999	109.747	169.2839
47.500000	109.695	168.8448
48.200001	109.639	168.4188
48.700001	109.597	168.1234
49.400002	109.538	167.7234
50.000000	109.490	167.3924
50.799999	109.433	166.9649
51.500000	109.389	166.6014
52.200001	109.345	166.2472
53.000000	109.293	165.8537
53.799999	109.242	165.4696
54.500000	109.200	165.1385
55.200001	109.159	164.8136
56.000000	109.115	164.4533
57.000000	109.061	164.0137
58.000000	109.007	163.5625
59.000000	108.948	163.0834
60.000000	108.879	162.6077
60.799999	108.818	162.2698
61.500000	108.765	162.0111
62.200001	108.714	161.7747
63.000000	108.660	161.5183
64.000000	108.595	161.2102
65.000000	108.530	160.9095
66.000000	108.464	160.6172
67.000000	108.399	160.3384
68.000000	108.337	160.0699
69.000000	108.278	159.7930
70.000000	108.217	159.4973
71.000000	108.152	159.1992
72.000000	108.084	158.9246
73.000000	108.021	158.6889
74.000000	107.964	158.4831
75.000000	107.911	158.2941
76.199997	107.846	158.0887
77.500000	107.775	157.8763
78.800003	107.705	157.6497
80.000000	107.641	157.4147
81.199997	107.580	157.1524
82.500000	107.512	156.8509
83.800003	107.443	156.5601
85.000000	107.377	156.3218
86.199997	107.305	156.1118
87.500000	107.218	155.9144
88.500000	107.146	155.7969
90.000000	107.040	155.6804
91.199997	106.966	155.6112
92.500000	106.899	155.5304
93.800003	106.842	155.4354
95.000000	106.796	155.3381
96.199997	106.750	155.2357
97.500000	106.696	155.1230
98.800003	106.634	155.0130
100.000000	106.573	154.9160
101.500000	106.495	154.8065
103.000000	106.424	154.7151
104.400002	106.365	154.6429
106.000000	106.302	154.5644
107.500000	106.242	154.4815
109.000000	106.177	154.3808
110.599998	106.104	154.2502
112.000000	106.041	154.1221
113.800003	105.958	153.9683
115.000000	105.901	153.8995
117.199997	105.792	153.8976
118.000000	105.753	153.9320
120.599998	105.635	154.0333
122.000000	105.574	154.0352
124.099998	105.488	154.0043
125.000000	105.453	153.9893
126.500000	105.399	153.9674
128.000000	105.344	153.9528
131.500000	105.204	153.9781
132.000000	105.184	153.9886
134.000000	105.106	154.0324
136.000000	105.031	154.0703
138.000000	104.955	154.1117
140.000000	104.880	154.1657
143.000000	104.772	154.2632
145.000000	104.704	154.3335
147.500000	104.617	154.4283
150.000000	104.529	154.5389
152.500000	104.445	154.6843
155.000000	104.371	154.8773
157.500000	104.306	155.0928
160.000000	104.248	155.2854
162.500000	104.190	155.4391
165.000000	104.125	155.5715
167.500000	104.043	155.7113
170.000000	103.942	155.8815
172.500000	103.833	156.0849
175.000000	103.726	156.3037
177.500000	103.629	156.5197
180.000000	103.551	156.7252
182.500000	103.494	156.9202
185.000000	103.453	157.1073
187.500000	103.420	157.2897
190.000000	103.387	157.4714
192.500000	103.351	157.6545
195.000000	103.310	157.8424
197.500000	103.261	158.0442
200.000000	103.208	158.2693
203.000000	103.145	158.5673
206.000000	103.087	158.8641
209.000000	103.029	159.1243
212.000000	102.965	159.3564
214.000000	102.919	159.5150
218.000000	102.827	159.8849
220.000000	102.784	160.0965
224.000000	102.708	160.5308
227.000000	102.660	160.8397
230.000000	102.616	161.1315
233.000000	102.573	161.4124
236.000000	102.529	161.6845
240.000000	102.469	162.0334
243.000000	102.421	162.2914
247.000000	102.354	162.6538
250.000000	102.304	162.9577
254.000000	102.244	163.4146
258.000000	102.197	163.8886
262.000000	102.157	164.3097
265.000000	102.126	164.5869
269.000000	102.079	164.9497
272.000000	102.041	165.2406
276.000000	101.994	165.6570
280.000000	101.953	166.0897
285.000000	101.915	166.6144
290.000000	101.890	167.0543
295.000000	101.860	167.3961
300.000000	101.818	167.7281
304.000000	101.784	168.0261
307.000000	101.759	168.2646
311.000000	101.726	168.5889
315.000000	101.690	168.9133
320.000000	101.642	169.3343
325.000000	101.597	169.7903
330.000000	101.558	170.2653
335.000000	101.521	170.7316
340.000000	101.486	171.1749
345.000000	101.451	171.6029
350.000000	101.420	172.0321
355.000000	101.393	172.4679
360.000000	101.367	172.9069
365.000000	101.338	173.3463
370.000000	101.308	173.7853
375.000000	101.280	174.2245
382.000000	101.246	174.8390
387.000000	101.225	175.2769
395.000000	101.193	175.9761
400.000000	101.174	176.4105
406.000000	101.152	176.9214
412.000000	101.128	177.4190
418.000000	101.105	177.9197
425.000000	101.083	178.5319
431.000000	101.070	179.0731
437.000000	101.064	179.6040
444.000000	101.061	-179.8069
450.000000	101.061	-179.3430
455.000000	101.062	-179.0017
462.000000	101.057	-178.5788
468.000000	101.045	-178.2137
475.000000	101.029	-177.7442
482.000000	101.014	-177.2480
487.000000	101.003	-176.8926
494.000000	100.985	-176.3803
500.000000	100.972	-175.9144
508.000000	100.961	-175.2855
515.000000	100.955	-174.7561
522.000000	100.947	-174.2363
530.000000	100.937	-173.6258
538.000000	100.931	-172.9983
545.000000	100.930	-172.4514
552.000000	100.931	-171.9103
560.000000	100.934	-171.3075
570.000000	100.940	-170.5833
580.000000	100.943	-169.8633
590.000000	100.942	-169.1302
600.000000	100.943	-168.3742
608.000000	100.950	-167.7648
615.000000	100.959	-167.2383
622.000000	100.967	-166.7077
630.000000	100.977	-166.0766
640.000000	100.994	-165.2587
650.000000	101.020	-164.4380
660.000000	101.058	-163.6418
670.000000	101.108	-162.9271
680.000000	101.154	-162.2978
690.000000	101.190	-161.6947
700.000000	101.219	-161.0711
710.000000	101.248	-160.4178
720.000000	101.280	-159.7551
730.000000	101.315	-159.0940
740.000000	101.350	-158.4312
750.000000	101.387	-157.7637
762.000000	101.432	-156.9565
775.000000	101.485	-156.0800
788.000000	101.542	-155.2069
800.000000	101.601	-154.3933
812.000000	101.666	-153.5732
825.000000	101.744	-152.7294
838.000000	101.818	-151.9644
850.000000	101.871	-151.2437
862.000000	101.917	-150.3757
875.000000	101.990	-149.2206
885.000000	102.085	-148.3032
900.000000	102.268	-147.2322
912.000000	102.407	-146.6493
925.000000	102.543	-146.0876
938.000000	102.684	-145.5460
950.000000	102.821	-145.1594
962.000000	102.945	-144.9092
975.000000	103.056	-144.6817
988.000000	103.152	-144.3927
1000.000000	103.237	-144.0483
1015.000000	103.348	-143.5298
1030.000000	103.473	-142.9721
1044.000000	103.604	-142.4982
1060.000000	103.762	-142.0805
1075.000000	103.907	-141.7853
1090.000000	104.048	-141.5336
1106.000000	104.198	-141.2942
1120.000000	104.328	-141.1053
1138.000000	104.492	-140.8813
1150.000000	104.598	-140.7393
1172.000000	104.791	-140.4864
1180.000000	104.863	-140.3962
1206.000000	105.114	-140.1786
1220.000000	105.254	-140.1639
1241.000000	105.454	-140.2643
1250.000000	105.534	-140.3302
1265.000000	105.660	-140.4497
1280.000000	105.779	-140.5724
1315.000000	106.045	-140.8582
1320.000000	106.083	-140.9021
1340.000000	106.231	-141.0903
1360.000000	106.375	-141.2835
1380.000000	106.517	-141.4538
1400.000000	106.664	-141.5845
1430.000000	106.911	-141.8126
1450.000000	107.087	-142.0805
1475.000000	107.308	-142.5302
1500.000000	107.532	-143.0464
1525.000000	107.764	-143.5831
1550.000000	108.000	-144.1092
1575.000000	108.229	-144.6355
1600.000000	108.423	-145.2502
1625.000000	108.536	-146.0032
1650.000000	108.558	-146.8480
1675.000000	108.516	-147.7313
1700.000000	108.461	-148.6355
1725.000000	108.430	-149.5628
1750.000000	108.439	-150.4898
1775.000000	108.488	-151.3734
1800.000000	108.569	-152.2162
1825.000000	108.667	-153.0838
1850.000000	108.764	-154.0144
1875.000000	108.851	-154.9904
1900.000000	108.923	-155.9735
1925.000000	108.981	-156.9244
1950.000000	109.031	-157.8278
1975.000000	109.075	-158.7166
2000.000000	109.111	-159.6349
2030.000000	109.134	-160.7746
2060.000000	109.131	-161.9051
2090.000000	109.102	-162.9822
2120.000000	109.047	-163.9734
2140.000000	108.998	-164.5610
2180.000000	108.886	-165.5079
2200.000000	108.830	-165.8828
2240.000000	108.720	-166.4969
2270.000000	108.635	-166.8310
2300.000000	108.550	-167.0234
2330.000000	108.474	-167.0687
2360.000000	108.414	-167.0227
2400.000000	108.357	-166.9377
2430.000000	108.321	-166.8601
2470.000000	108.282	-166.6630
2500.000000	108.266	-166.4214
2540.000000	108.280	-166.0173
2580.000000	108.345	-165.6861
2620.000000	108.445	-165.6701
2650.000000	108.519	-165.9171
2690.000000	108.591	-166.4839
2720.000000	108.620	-166.9755
2760.000000	108.635	-167.6302
2800.000000	108.628	-168.2638
2850.000000	108.595	-168.9947
2900.000000	108.536	-169.5920
2950.000000	108.457	-169.9546
3000.000000	108.384	-170.0806
3040.000000	108.340	-170.0797
3070.000000	108.318	-170.0380
3110.000000	108.307	-169.9364
3150.000000	108.324	-169.8304
3200.000000	108.379	-169.8183
3250.000000	108.450	-170.0434
3300.000000	108.503	-170.4819
3350.000000	108.519	-170.9597
3400.000000	108.504	-171.2975
3450.000000	108.471	-171.3900
3500.000000	108.446	-171.2068
3550.000000	108.459	-170.8528
3600.000000	108.526	-170.5389
3650.000000	108.639	-170.4529
3700.000000	108.777	-170.6734
3750.000000	108.926	-171.1846
3820.000000	109.140	-172.3407
3870.000000	109.283	-173.4232
3950.000000	109.483	-175.4402
4000.000000	109.587	-176.8663
4060.000000	109.676	-178.7697
4120.000000	109.709	179.1464
4180.000000	109.680	176.9333
4250.000000	109.559	174.2532
4310.000000	109.381	171.9840
4370.000000	109.146	169.8223
4440.000000	108.818	167.4549
4500.000000	108.495	165.5791
4550.000000	108.198	164.1566
4620.000000	107.745	162.4206
4680.000000	107.323	161.2281
4750.000000	106.800	160.2577
4820.000000	106.258	159.7742
4870.000000	105.858	159.7765
4940.000000	105.289	160.4705
5000.000000	104.825	161.9116
5080.000000	104.379	164.8721
5150.000000	104.242	167.2847
5220.000000	104.212	168.4343
5300.000000	104.073	168.6227
5380.000000	103.774	168.8474
5450.000000	103.438	169.5240
5520.000000	103.079	170.6586
5600.000000	102.676	172.3911
5700.000000	102.220	174.9672
5800.000000	101.835	177.7761
5900.000000	101.514	-179.2789
6000.000000	101.255	-176.1733
6080.000000	101.096	-173.5905
6150.000000	100.994	-171.2962
6220.000000	100.923	-168.9999
6300.000000	100.878	-166.3777
6400.000000	100.870	-163.0792
6500.000000	100.923	-159.7662
6600.000000	101.040	-156.5002
6700.000000	101.218	-153.3304
6800.000000	101.459	-150.2605
6900.000000	101.770	-147.3175
7000.000000	102.155	-144.5847
7100.000000	102.613	-142.1520
7200.000000	103.144	-140.0878
7300.000000	103.758	-138.4942
7400.000000	104.453	-137.5468
7500.000000	105.209	-137.4547
7620.000000	106.149	-138.7579
7750.000000	107.118	-142.3066
7880.000000	107.901	-148.3892
8000.000000	108.337	-156.0021
8120.000000	108.431	-164.6548
8250.000000	108.137	-173.8451
8380.000000	107.487	178.4537
8500.000000	106.667	173.3349
8620.000000	105.751	170.1864
8750.000000	104.763	168.6638
8850.000000	104.061	168.5574
9000.000000	103.165	169.6752
9120.000000	102.614	171.2943
9250.000000	102.189	173.4484
9380.000000	101.946	175.7833
9500.000000	101.890	177.8828
9620.000000	101.999	179.7106
9750.000000	102.305	-178.8717
9880.000000	102.799	-178.4044
10000.000000	103.392	-179.2537
10150.000000	104.216	177.2635
10300.000000	104.962	170.3914
10440.000000	105.401	160.7690
10600.000000	105.408	147.0885
10750.000000	104.855	133.7538
10900.000000	103.800	121.8654
11060.000000	102.261	111.7302
11200.000000	100.692	104.9352
11380.000000	98.470	98.7964
11500.000000	96.867	96.5791
11720.000000	93.689	97.4772
11800.000000	92.493	99.3904
12060.000000	88.883	108.4666
12200.000000	87.312	113.1358
12410.000000	85.247	119.7408
12500.000000	84.352	123.2818
12650.000000	82.838	130.7523
12800.000000	81.439	139.4624
13150.000000	79.069	160.2040
13200.000000	78.819	163.1622
13400.000000	78.033	174.6606
13600.000000	77.451	-174.9572
13800.000000	76.826	-164.2417
14000.000000	76.413	-150.5350
14300.000000	77.896	-126.0750
14500.000000	80.131	-112.9790
14750.000000	82.934	-106.4388
15000.000000	85.010	-111.6935
15250.000000	86.137	-125.1834
15500.000000	86.295	-142.6004
15750.000000	85.519	-160.6019
16000.000000	83.853	-175.4690
16250.000000	81.329	-179.9975
16500.000000	78.109	-165.4474
16750.000000	75.120	-136.7418
17000.000000	74.095	-114.2362
17250.000000	74.581	-106.2802
17500.000000	75.113	-106.9602
17750.000000	75.318	-110.3379
18000.000000	75.253	-114.3897
18250.000000	74.957	-119.1884
18500.000000	74.348	-124.7677
18750.000000	73.290	-129.9271
19000.000000	71.707	-132.4163
19250.000000	69.620	-130.0446
19500.000000	67.121	-121.3500
19750.000000	64.356	-105.8299
20000.000000	61.634	-84.6205
