* Measurement data measured by REW V5.20.13
* Source: EXCL: Mic in at front panel (Pink) (Realtek(R) Audio), no input selected, L, volume: 0.250
* Format: 256k Log Swept Sine, 1 sweep at -12.0 dBFS with no timing reference
* Dated: Dec 26, 2022 7:13:20 PM
* REW Settings:
*  C-weighting compensation: Off
*  Target level: 75.0 dB
* Note: TRN Xuanwu R
* Measurement: TRN Xuanwu R
* Smoothing: 1/12 octave
* Frequency Step: 1/48 octave
* Start Frequency: 20.000 Hz
*
* Freq(Hz)	SPL(dB)	Phase(degrees)
20.000000	97.235	-155.5741
20.299999	97.253	-156.2126
20.600000	97.270	-156.8399
20.900000	97.286	-157.4564
21.200001	97.300	-158.0614
21.400000	97.309	-158.4578
21.799999	97.325	-159.2328
22.000000	97.332	-159.6113
22.400000	97.347	-160.3509
22.700001	97.357	-160.8922
23.000000	97.366	-161.4240
23.299999	97.376	-161.9476
23.600000	97.385	-162.4639
24.000000	97.395	-163.1415
24.299999	97.403	-163.6417
24.700001	97.411	-164.2972
25.000000	97.417	-164.7801
25.400000	97.423	-165.4120
25.799999	97.428	-166.0303
26.200001	97.432	-166.6355
26.500000	97.434	-167.0812
26.900000	97.437	-167.6646
27.200001	97.437	-168.0937
27.600000	97.437	-168.6534
28.000000	97.437	-169.1985
28.500000	97.435	-169.8613
29.000000	97.434	-170.5112
29.500000	97.431	-171.1550
30.000000	97.426	-171.7914
30.400000	97.420	-172.2879
30.700001	97.415	-172.6494
31.100000	97.408	-173.1159
31.500000	97.402	-173.5692
32.000000	97.397	-174.1304
32.500000	97.393	-174.6989
33.000000	97.388	-175.2785
33.500000	97.380	-175.8627
34.000000	97.370	-176.4423
34.500000	97.357	-177.0094
35.000000	97.340	-177.5570
35.500000	97.322	-178.0762
36.000000	97.302	-178.5612
36.500000	97.283	-179.0123
37.000000	97.267	-179.4368
37.500000	97.253	-179.8441
38.200001	97.237	179.5939
38.700001	97.227	179.1861
39.500000	97.209	178.5162
40.000000	97.195	178.0969
40.599998	97.176	177.6055
41.200001	97.156	177.1269
41.799999	97.138	176.6523
42.500000	97.117	176.0957
43.099998	97.099	175.6147
43.700001	97.083	175.1283
44.400002	97.063	174.5536
45.000000	97.045	174.0635
45.500000	97.029	173.6677
46.200001	97.008	173.1400
46.799999	96.994	172.6956
47.500000	96.980	172.1427
48.200001	96.958	171.5432
48.700001	96.934	171.1190
49.400002	96.889	170.5900
50.000000	96.848	170.2083
50.799999	96.796	169.7559
51.500000	96.750	169.3862
52.200001	96.703	169.0603
53.000000	96.656	168.7504
53.799999	96.623	168.4535
54.500000	96.603	168.1518
55.200001	96.587	167.7964
56.000000	96.567	167.3434
57.000000	96.539	166.7504
58.000000	96.507	166.1580
59.000000	96.470	165.5851
60.000000	96.428	165.0443
60.799999	96.388	164.6447
61.500000	96.349	164.3256
62.200001	96.308	164.0370
63.000000	96.259	163.7489
64.000000	96.204	163.4418
65.000000	96.164	163.1004
66.000000	96.129	162.6365
67.000000	96.086	162.0972
68.000000	96.036	161.5609
69.000000	95.983	161.0722
70.000000	95.932	160.6546
71.000000	95.889	160.2829
72.000000	95.851	159.9123
73.000000	95.813	159.5296
74.000000	95.772	159.1499
75.000000	95.729	158.7855
76.199997	95.681	158.3582
77.500000	95.633	157.8659
78.800003	95.577	157.3277
80.000000	95.508	156.8915
81.199997	95.437	156.5968
82.500000	95.373	156.3090
83.800003	95.311	155.9343
85.000000	95.247	155.5412
86.199997	95.179	155.1478
87.500000	95.108	154.7385
88.500000	95.057	154.4391
90.000000	94.985	154.0287
91.199997	94.929	153.7358
92.500000	94.869	153.4397
93.800003	94.805	153.1487
95.000000	94.744	152.8722
96.199997	94.681	152.5827
97.500000	94.612	152.2679
98.800003	94.545	151.9794
100.000000	94.484	151.7560
101.500000	94.408	151.5431
103.000000	94.330	151.3792
104.400002	94.256	151.2153
106.000000	94.174	150.9556
107.500000	94.103	150.6537
109.000000	94.040	150.3618
110.599998	93.973	150.1082
112.000000	93.899	149.9218
113.800003	93.770	149.6063
115.000000	93.665	149.2173
117.199997	93.438	148.0538
118.000000	93.349	147.6333
120.599998	93.150	147.3248
122.000000	93.165	147.6920
124.099998	93.257	148.2289
125.000000	93.285	148.4227
126.500000	93.302	148.6935
128.000000	93.288	148.8308
131.500000	93.161	148.2574
132.000000	93.132	148.1110
134.000000	93.006	147.5958
136.000000	92.892	147.2916
138.000000	92.803	147.1793
140.000000	92.730	147.1702
143.000000	92.633	147.0336
145.000000	92.553	146.7025
147.500000	92.416	146.3658
150.000000	92.283	146.3809
152.500000	92.182	146.4298
155.000000	92.094	146.3201
157.500000	92.008	146.1850
160.000000	91.921	146.1074
162.500000	91.823	146.0443
165.000000	91.717	145.9529
167.500000	91.614	145.8515
170.000000	91.518	145.7891
172.500000	91.423	145.7819
175.000000	91.319	145.7866
177.500000	91.207	145.7820
180.000000	91.103	145.8062
182.500000	91.023	145.8538
185.000000	90.956	145.8936
187.500000	90.887	145.9131
190.000000	90.823	145.9031
192.500000	90.768	145.8815
195.000000	90.702	145.9212
197.500000	90.607	146.1006
200.000000	90.497	146.3805
203.000000	90.375	146.7215
206.000000	90.279	147.0194
209.000000	90.201	147.2630
212.000000	90.130	147.4484
214.000000	90.084	147.5540
218.000000	89.994	147.7615
220.000000	89.951	147.8595
224.000000	89.868	148.0120
227.000000	89.806	148.0798
230.000000	89.739	148.1207
233.000000	89.669	148.1556
236.000000	89.595	148.1962
240.000000	89.491	148.2618
243.000000	89.409	148.3280
247.000000	89.293	148.4664
250.000000	89.204	148.6259
254.000000	89.090	148.9197
258.000000	88.988	149.2609
262.000000	88.898	149.5784
265.000000	88.833	149.7933
269.000000	88.745	150.0882
272.000000	88.682	150.3440
276.000000	88.608	150.7259
280.000000	88.544	151.1019
285.000000	88.478	151.5015
290.000000	88.418	151.7752
295.000000	88.348	151.9245
300.000000	88.259	152.0549
304.000000	88.181	152.1950
307.000000	88.121	152.3211
311.000000	88.041	152.5058
315.000000	87.961	152.7034
320.000000	87.857	152.9851
325.000000	87.754	153.3253
330.000000	87.656	153.7068
335.000000	87.564	154.0960
340.000000	87.476	154.4736
345.000000	87.389	154.8448
350.000000	87.301	155.2267
355.000000	87.216	155.6255
360.000000	87.132	156.0361
365.000000	87.051	156.4524
370.000000	86.971	156.8751
375.000000	86.893	157.3078
382.000000	86.788	157.9289
387.000000	86.715	158.3792
395.000000	86.603	159.1098
400.000000	86.536	159.5719
406.000000	86.457	160.1228
412.000000	86.380	160.6647
418.000000	86.302	161.2155
425.000000	86.214	161.8956
431.000000	86.145	162.5032
437.000000	86.083	163.1078
444.000000	86.018	163.7913
450.000000	85.967	164.3431
455.000000	85.926	164.7622
462.000000	85.862	165.2995
468.000000	85.798	165.7665
475.000000	85.721	166.3591
482.000000	85.646	166.9846
487.000000	85.594	167.4374
494.000000	85.519	168.0941
500.000000	85.457	168.6900
508.000000	85.384	169.4976
515.000000	85.324	170.1859
522.000000	85.264	170.8682
530.000000	85.196	171.6732
538.000000	85.131	172.5076
545.000000	85.079	173.2439
552.000000	85.030	173.9802
560.000000	84.979	174.8123
570.000000	84.917	175.8339
580.000000	84.854	176.8618
590.000000	84.794	177.9011
600.000000	84.737	178.9506
608.000000	84.697	179.7967
615.000000	84.663	-179.4615
622.000000	84.629	-178.7076
630.000000	84.591	-177.8129
640.000000	84.552	-176.6553
650.000000	84.525	-175.4895
660.000000	84.510	-174.3475
670.000000	84.505	-173.2837
680.000000	84.497	-172.2989
690.000000	84.482	-171.3323
700.000000	84.461	-170.3348
710.000000	84.442	-169.2947
720.000000	84.426	-168.2302
730.000000	84.413	-167.1491
740.000000	84.403	-166.0441
750.000000	84.398	-164.9092
762.000000	84.398	-163.5073
775.000000	84.412	-161.9509
788.000000	84.441	-160.3761
800.000000	84.482	-158.9108
812.000000	84.544	-157.4506
825.000000	84.634	-155.9498
838.000000	84.737	-154.6092
850.000000	84.829	-153.4943
862.000000	84.917	-152.4397
875.000000	85.009	-151.3274
885.000000	85.080	-150.4862
900.000000	85.187	-149.2575
912.000000	85.273	-148.2944
925.000000	85.370	-147.2673
938.000000	85.470	-146.2722
950.000000	85.564	-145.3909
962.000000	85.658	-144.5369
975.000000	85.758	-143.6270
988.000000	85.858	-142.7244
1000.000000	85.952	-141.8912
1015.000000	86.074	-140.8346
1030.000000	86.209	-139.7820
1044.000000	86.348	-138.8644
1060.000000	86.512	-137.9494
1075.000000	86.658	-137.1908
1090.000000	86.798	-136.4746
1106.000000	86.943	-135.7368
1120.000000	87.068	-135.1081
1138.000000	87.226	-134.3135
1150.000000	87.331	-133.7878
1172.000000	87.526	-132.8228
1180.000000	87.599	-132.4708
1206.000000	87.852	-131.3939
1220.000000	87.992	-130.9120
1241.000000	88.193	-130.3044
1250.000000	88.275	-130.0637
1265.000000	88.407	-129.6676
1280.000000	88.536	-129.2698
1315.000000	88.834	-128.3323
1320.000000	88.876	-128.2018
1340.000000	89.047	-127.6966
1360.000000	89.214	-127.2030
1380.000000	89.381	-126.6902
1400.000000	89.555	-126.1384
1430.000000	89.843	-125.3446
1450.000000	90.045	-124.9356
1475.000000	90.296	-124.5480
1500.000000	90.541	-124.2421
1525.000000	90.784	-123.9794
1550.000000	91.030	-123.7362
1575.000000	91.289	-123.5314
1600.000000	91.562	-123.4614
1625.000000	91.835	-123.5825
1650.000000	92.096	-123.8517
1675.000000	92.348	-124.2201
1700.000000	92.591	-124.6748
1725.000000	92.825	-125.2219
1750.000000	93.047	-125.8413
1775.000000	93.261	-126.4929
1800.000000	93.473	-127.1823
1825.000000	93.686	-127.9773
1850.000000	93.889	-128.9144
1875.000000	94.075	-129.9712
1900.000000	94.240	-131.1026
1925.000000	94.386	-132.2623
1950.000000	94.518	-133.4278
1975.000000	94.642	-134.6262
2000.000000	94.753	-135.8955
2030.000000	94.861	-137.5014
2060.000000	94.936	-139.1368
2090.000000	94.980	-140.7504
2120.000000	94.993	-142.3035
2140.000000	94.986	-143.2758
2180.000000	94.947	-145.0076
2200.000000	94.923	-145.7825
2240.000000	94.866	-147.2251
2270.000000	94.812	-148.2173
2300.000000	94.748	-149.0964
2330.000000	94.680	-149.8340
2360.000000	94.617	-150.4551
2400.000000	94.544	-151.1967
2430.000000	94.493	-151.7165
2470.000000	94.423	-152.3491
2500.000000	94.368	-152.7641
2540.000000	94.294	-153.1912
2580.000000	94.231	-153.4510
2620.000000	94.188	-153.6162
2650.000000	94.169	-153.7160
2690.000000	94.155	-153.8075
2720.000000	94.158	-153.8316
2760.000000	94.186	-153.8449
2800.000000	94.244	-153.9211
2850.000000	94.345	-154.1810
2900.000000	94.464	-154.6355
2950.000000	94.597	-155.2323
3000.000000	94.752	-155.9888
3040.000000	94.890	-156.7744
3070.000000	94.998	-157.4803
3110.000000	95.147	-158.5728
3150.000000	95.301	-159.8678
3200.000000	95.494	-161.8620
3250.000000	95.665	-164.3378
3300.000000	95.785	-167.2651
3350.000000	95.836	-170.5156
3400.000000	95.811	-173.9646
3450.000000	95.701	-177.4809
3500.000000	95.503	179.1305
3550.000000	95.230	176.0359
3600.000000	94.899	173.3137
3650.000000	94.524	171.0012
3700.000000	94.116	169.1411
3750.000000	93.688	167.7744
3820.000000	93.091	166.6580
3870.000000	92.679	166.3976
3950.000000	92.087	166.8663
4000.000000	91.783	167.5951
4060.000000	91.500	168.7343
4120.000000	91.306	170.0399
4180.000000	91.201	171.4094
4250.000000	91.186	172.9492
4310.000000	91.260	174.1480
4370.000000	91.415	175.1384
4440.000000	91.685	175.8379
4500.000000	91.967	175.9236
4550.000000	92.220	175.5988
4620.000000	92.570	174.5287
4680.000000	92.842	173.1005
4750.000000	93.107	170.9666
4820.000000	93.302	168.4416
4870.000000	93.388	166.4733
4940.000000	93.428	163.6402
5000.000000	93.385	161.2825
5080.000000	93.226	158.4861
5150.000000	93.016	156.5532
5220.000000	92.769	155.1567
5300.000000	92.473	154.1679
5380.000000	92.186	153.7403
5450.000000	91.950	153.7678
5520.000000	91.736	154.1561
5600.000000	91.533	155.0029
5700.000000	91.359	156.5115
5800.000000	91.275	158.3225
5900.000000	91.261	160.3302
6000.000000	91.306	162.5600
6080.000000	91.385	164.5103
6150.000000	91.486	166.3327
6220.000000	91.619	168.2624
6300.000000	91.812	170.6129
6400.000000	92.134	173.7617
6500.000000	92.563	177.0236
6600.000000	93.101	-179.7999
6700.000000	93.736	-176.8495
6800.000000	94.460	-174.1680
6900.000000	95.279	-171.7990
7000.000000	96.201	-169.8495
7100.000000	97.228	-168.4646
7200.000000	98.359	-167.8279
7300.000000	99.579	-168.2395
7400.000000	100.834	-170.1470
7500.000000	102.036	-174.0359
7620.000000	103.248	178.2543
7750.000000	104.072	166.4856
7880.000000	104.231	153.0709
8000.000000	103.785	141.8010
8120.000000	102.902	133.4116
8250.000000	101.678	128.0013
8380.000000	100.386	125.7520
8500.000000	99.252	125.7043
8620.000000	98.231	126.9867
8750.000000	97.268	129.3777
8850.000000	96.622	131.7354
9000.000000	95.794	135.9121
9120.000000	95.247	139.6422
9250.000000	94.759	143.9432
9380.000000	94.373	148.4357
9500.000000	94.104	152.6624
9620.000000	93.911	156.8869
9750.000000	93.782	161.4151
9880.000000	93.734	165.8356
10000.000000	93.757	169.7448
10150.000000	93.870	174.3152
10300.000000	94.071	178.4199
10440.000000	94.325	-178.3256
10600.000000	94.667	-175.4622
10750.000000	95.004	-173.7831
10900.000000	95.308	-173.2351
11060.000000	95.530	-173.9282
11200.000000	95.578	-175.4843
11380.000000	95.357	-178.1915
11500.000000	95.001	-179.8317
11720.000000	93.915	179.3860
11800.000000	93.411	-179.7454
12060.000000	91.726	-172.1534
12200.000000	91.052	-165.9281
12410.000000	90.626	-156.0741
12500.000000	90.651	-152.1663
12650.000000	90.902	-146.4797
12800.000000	91.343	-142.0786
13150.000000	92.707	-138.4743
13200.000000	92.895	-138.9108
13400.000000	93.468	-143.3462
13600.000000	93.553	-151.3301
13800.000000	92.969	-160.2219
14000.000000	91.709	-166.6481
14300.000000	88.938	-168.0215
14500.000000	86.866	-164.0702
14750.000000	84.416	-155.9370
15000.000000	82.342	-146.1967
15250.000000	80.661	-135.8710
15500.000000	79.295	-125.2007
15750.000000	78.209	-114.2666
16000.000000	77.437	-103.3489
16250.000000	77.055	-93.1114
16500.000000	77.103	-84.7428
16750.000000	77.473	-79.9280
17000.000000	77.869	-80.3353
17250.000000	77.890	-86.2216
17500.000000	77.199	-94.9332
17750.000000	75.664	-101.6256
18000.000000	73.358	-102.0700
18250.000000	70.458	-94.0810
18500.000000	67.187	-77.5169
18750.000000	63.939	-55.7136
19000.000000	61.364	-34.6864
19250.000000	59.732	-16.5106
19500.000000	58.837	1.3474
19750.000000	58.776	19.2681
20000.000000	59.410	33.7676
