* Measurement data measured by REW V5.20.4
* Source: Mic in at front panel (Pink) (Realtek(R) Audio), MICROPHONE (Master Volume), L, volume: 0.250
* Format: 256k Log Swept Sine, 1 sweep at -12.0 dBFS with no timing reference
* Dated: Jan 20, 2022 11:09:49 AM
* REW Settings:
*  C-weighting compensation: Off
*  Target level: 75.0 dB
* Note: UM MEST R
* Measurement: MEST R
* Smoothing: 1/12 octave
* Frequency Step: 1/48 octave
* Start Frequency: 20.000 Hz
*
* Freq(Hz)	SPL(dB)	Phase(degrees)
20.000000	99.388	0.4764
20.299999	99.372	-0.0648
20.600000	99.358	-0.6060
20.900000	99.343	-1.1506
21.200001	99.328	-1.6989
21.400000	99.318	-2.0638
21.799999	99.295	-2.7844
22.000000	99.282	-3.1357
22.400000	99.255	-3.8138
22.700001	99.235	-4.3015
23.000000	99.215	-4.7765
23.299999	99.197	-5.2463
23.600000	99.178	-5.7161
24.000000	99.150	-6.3439
24.299999	99.128	-6.8108
24.700001	99.094	-7.4165
25.000000	99.068	-7.8519
25.400000	99.033	-8.4075
25.799999	99.000	-8.9464
26.200001	98.970	-9.4839
26.500000	98.947	-9.8906
26.900000	98.914	-10.4346
27.200001	98.889	-10.8372
27.600000	98.853	-11.3580
28.000000	98.817	-11.8578
28.500000	98.773	-12.4622
29.000000	98.731	-13.0591
29.500000	98.689	-13.6527
30.000000	98.646	-14.2363
30.400000	98.612	-14.6919
30.700001	98.587	-15.0274
31.100000	98.553	-15.4690
31.500000	98.519	-15.9054
32.000000	98.477	-16.4426
32.500000	98.434	-16.9676
33.000000	98.391	-17.4799
33.500000	98.349	-17.9834
34.000000	98.307	-18.4830
34.500000	98.264	-18.9802
35.000000	98.221	-19.4731
35.500000	98.176	-19.9583
36.000000	98.130	-20.4319
36.500000	98.083	-20.8907
37.000000	98.036	-21.3326
37.500000	97.988	-21.7586
38.200001	97.924	-22.3354
38.700001	97.878	-22.7394
39.500000	97.805	-23.3733
40.000000	97.758	-23.7582
40.599998	97.703	-24.2083
41.200001	97.649	-24.6509
41.799999	97.594	-25.0890
42.500000	97.528	-25.5886
43.099998	97.470	-25.9989
43.700001	97.412	-26.3882
44.400002	97.347	-26.8200
45.000000	97.294	-27.1896
45.500000	97.251	-27.5153
46.200001	97.187	-28.0004
46.799999	97.124	-28.4079
47.500000	97.046	-28.8212
48.200001	96.974	-29.1748
48.700001	96.927	-29.4205
49.400002	96.867	-29.7793
50.000000	96.818	-30.0936
50.799999	96.756	-30.5149
51.500000	96.705	-30.9034
52.200001	96.652	-31.3081
53.000000	96.586	-31.7363
53.799999	96.521	-32.0906
54.500000	96.471	-32.3702
55.200001	96.424	-32.6573
56.000000	96.368	-32.9921
57.000000	96.294	-33.3870
58.000000	96.221	-33.7689
59.000000	96.151	-34.1885
60.000000	96.076	-34.6506
60.799999	96.010	-35.0079
61.500000	95.952	-35.2921
62.200001	95.894	-35.5525
63.000000	95.828	-35.8259
64.000000	95.749	-36.1403
65.000000	95.668	-36.4584
66.000000	95.580	-36.7799
67.000000	95.487	-37.0619
68.000000	95.399	-37.3354
69.000000	95.315	-37.6372
70.000000	95.234	-37.9365
71.000000	95.162	-38.2294
72.000000	95.096	-38.5325
73.000000	95.030	-38.8376
74.000000	94.955	-39.1057
75.000000	94.876	-39.2964
76.199997	94.786	-39.4830
77.500000	94.696	-39.7689
78.800003	94.609	-40.2028
80.000000	94.524	-40.7089
81.199997	94.430	-41.1607
82.500000	94.341	-41.3972
83.800003	94.291	-41.4796
85.000000	94.258	-41.5842
86.199997	94.211	-41.7225
87.500000	94.132	-41.8552
88.500000	94.056	-41.9281
90.000000	93.942	-42.0522
91.199997	93.861	-42.2443
92.500000	93.781	-42.5236
93.800003	93.706	-42.7564
95.000000	93.644	-42.8707
96.199997	93.586	-42.9219
97.500000	93.518	-42.9785
98.800003	93.441	-43.1025
100.000000	93.370	-43.3094
101.500000	93.291	-43.6938
103.000000	93.223	-44.1493
104.400002	93.153	-44.4731
106.000000	93.057	-44.6008
107.500000	92.950	-44.5780
109.000000	92.838	-44.5878
110.599998	92.728	-44.6627
112.000000	92.651	-44.6060
113.800003	92.562	-43.9553
115.000000	92.489	-42.9316
117.199997	92.366	-39.9026
118.000000	92.359	-38.7888
120.599998	92.460	-37.7999
122.000000	92.479	-39.0822
124.099998	92.445	-41.4312
125.000000	92.437	-42.2013
126.500000	92.442	-43.0633
128.000000	92.445	-43.5415
131.500000	92.366	-44.4182
132.000000	92.344	-44.5743
134.000000	92.249	-45.1591
136.000000	92.155	-45.4940
138.000000	92.067	-45.5797
140.000000	91.973	-45.5788
143.000000	91.823	-45.6337
145.000000	91.731	-45.6895
147.500000	91.650	-45.6555
150.000000	91.615	-45.5287
152.500000	91.591	-45.4041
155.000000	91.544	-45.3281
157.500000	91.480	-45.3475
160.000000	91.421	-45.4869
162.500000	91.370	-45.7007
165.000000	91.316	-45.9307
167.500000	91.252	-46.1311
170.000000	91.186	-46.2900
172.500000	91.121	-46.4210
175.000000	91.061	-46.5406
177.500000	91.006	-46.6599
180.000000	90.952	-46.7834
182.500000	90.898	-46.9005
185.000000	90.844	-47.0096
187.500000	90.791	-47.1310
190.000000	90.741	-47.2893
192.500000	90.698	-47.4827
195.000000	90.655	-47.6537
197.500000	90.608	-47.7204
200.000000	90.559	-47.6764
203.000000	90.504	-47.5844
206.000000	90.457	-47.5207
209.000000	90.415	-47.4948
212.000000	90.371	-47.5068
214.000000	90.339	-47.5247
218.000000	90.274	-47.5327
220.000000	90.244	-47.5148
224.000000	90.194	-47.4718
227.000000	90.163	-47.4623
230.000000	90.134	-47.4762
233.000000	90.105	-47.5073
236.000000	90.078	-47.5534
240.000000	90.042	-47.6356
243.000000	90.013	-47.7007
247.000000	89.970	-47.7671
250.000000	89.937	-47.7860
254.000000	89.897	-47.7621
258.000000	89.869	-47.7231
262.000000	89.851	-47.7377
265.000000	89.837	-47.7867
269.000000	89.815	-47.8561
272.000000	89.798	-47.8864
276.000000	89.779	-47.8955
280.000000	89.766	-47.8873
285.000000	89.762	-47.8927
290.000000	89.767	-47.9803
295.000000	89.765	-48.1620
300.000000	89.752	-48.3524
304.000000	89.737	-48.4713
307.000000	89.727	-48.5444
311.000000	89.714	-48.6353
315.000000	89.702	-48.7267
320.000000	89.684	-48.8263
325.000000	89.669	-48.8896
330.000000	89.659	-48.9323
335.000000	89.655	-48.9843
340.000000	89.652	-49.0615
345.000000	89.649	-49.1542
350.000000	89.644	-49.2429
355.000000	89.639	-49.3233
360.000000	89.636	-49.4016
365.000000	89.635	-49.4807
370.000000	89.636	-49.5593
375.000000	89.637	-49.6354
382.000000	89.642	-49.7393
387.000000	89.647	-49.8132
395.000000	89.658	-49.9301
400.000000	89.667	-50.0042
406.000000	89.680	-50.1019
412.000000	89.692	-50.2114
418.000000	89.703	-50.3154
425.000000	89.718	-50.4062
431.000000	89.735	-50.4657
437.000000	89.759	-50.5341
444.000000	89.793	-50.6421
450.000000	89.826	-50.7739
455.000000	89.854	-50.9282
462.000000	89.884	-51.1984
468.000000	89.899	-51.4258
475.000000	89.913	-51.6443
482.000000	89.928	-51.8322
487.000000	89.938	-51.9631
494.000000	89.950	-52.1274
500.000000	89.962	-52.2375
508.000000	89.982	-52.3733
515.000000	90.003	-52.5108
522.000000	90.021	-52.6546
530.000000	90.039	-52.7946
538.000000	90.061	-52.9075
545.000000	90.083	-53.0026
552.000000	90.107	-53.1001
560.000000	90.137	-53.2238
570.000000	90.172	-53.4039
580.000000	90.202	-53.5820
590.000000	90.229	-53.7369
600.000000	90.256	-53.8585
608.000000	90.280	-53.9445
615.000000	90.300	-54.0217
622.000000	90.317	-54.0903
630.000000	90.336	-54.1371
640.000000	90.365	-54.1541
650.000000	90.401	-54.1519
660.000000	90.445	-54.1581
670.000000	90.494	-54.2325
680.000000	90.535	-54.3804
690.000000	90.564	-54.5410
700.000000	90.582	-54.6639
710.000000	90.594	-54.7306
720.000000	90.602	-54.7421
730.000000	90.607	-54.6849
740.000000	90.614	-54.5427
750.000000	90.630	-54.3305
762.000000	90.663	-54.0444
775.000000	90.711	-53.7644
788.000000	90.762	-53.5211
800.000000	90.810	-53.2839
812.000000	90.866	-53.0178
825.000000	90.942	-52.7657
838.000000	91.022	-52.6345
850.000000	91.087	-52.6014
862.000000	91.140	-52.5864
875.000000	91.186	-52.5396
885.000000	91.219	-52.4720
900.000000	91.265	-52.3339
912.000000	91.301	-52.1911
925.000000	91.342	-52.0101
938.000000	91.387	-51.8252
950.000000	91.429	-51.6650
962.000000	91.470	-51.5090
975.000000	91.513	-51.3304
988.000000	91.556	-51.1346
1000.000000	91.594	-50.9324
1015.000000	91.644	-50.6362
1030.000000	91.704	-50.3125
1044.000000	91.769	-50.0459
1060.000000	91.846	-49.8391
1075.000000	91.909	-49.7081
1090.000000	91.962	-49.5798
1106.000000	92.012	-49.4208
1120.000000	92.052	-49.2574
1138.000000	92.099	-49.0072
1150.000000	92.130	-48.8150
1172.000000	92.191	-48.4201
1180.000000	92.215	-48.2681
1206.000000	92.310	-47.8291
1220.000000	92.362	-47.6788
1241.000000	92.426	-47.5343
1250.000000	92.446	-47.4741
1265.000000	92.471	-47.3495
1280.000000	92.489	-47.1838
1315.000000	92.520	-46.6335
1320.000000	92.524	-46.5413
1340.000000	92.539	-46.1475
1360.000000	92.554	-45.6998
1380.000000	92.572	-45.1685
1400.000000	92.599	-44.5351
1430.000000	92.667	-43.5035
1450.000000	92.721	-42.8594
1475.000000	92.782	-42.0889
1500.000000	92.828	-41.2979
1525.000000	92.855	-40.4457
1550.000000	92.864	-39.5077
1575.000000	92.870	-38.5007
1600.000000	92.886	-37.5207
1625.000000	92.902	-36.6219
1650.000000	92.911	-35.7582
1675.000000	92.915	-34.8779
1700.000000	92.917	-33.9691
1725.000000	92.916	-33.0394
1750.000000	92.908	-32.0698
1775.000000	92.897	-31.0222
1800.000000	92.895	-29.9072
1825.000000	92.905	-28.7994
1850.000000	92.923	-27.7417
1875.000000	92.942	-26.7201
1900.000000	92.966	-25.7013
1925.000000	92.998	-24.6534
1950.000000	93.048	-23.5701
1975.000000	93.118	-22.4931
2000.000000	93.199	-21.4741
2030.000000	93.298	-20.3339
2060.000000	93.389	-19.2417
2090.000000	93.472	-18.1652
2120.000000	93.545	-17.0829
2140.000000	93.588	-16.3351
2180.000000	93.669	-14.7327
2200.000000	93.713	-13.9020
2240.000000	93.806	-12.2681
2270.000000	93.874	-11.0627
2300.000000	93.937	-9.8145
2330.000000	94.004	-8.4650
2360.000000	94.087	-7.0162
2400.000000	94.239	-5.0317
2430.000000	94.388	-3.5878
2470.000000	94.630	-1.8628
2500.000000	94.832	-0.8113
2540.000000	95.107	0.2404
2580.000000	95.376	0.9482
2620.000000	95.632	1.3237
2650.000000	95.809	1.3885
2690.000000	96.011	1.2402
2720.000000	96.137	1.0126
2760.000000	96.274	0.6082
2800.000000	96.376	0.1185
2850.000000	96.456	-0.5431
2900.000000	96.488	-1.1687
2950.000000	96.488	-1.6553
3000.000000	96.480	-2.0140
3040.000000	96.476	-2.2886
3070.000000	96.474	-2.5093
3110.000000	96.476	-2.8341
3150.000000	96.486	-3.2405
3200.000000	96.506	-3.9811
3250.000000	96.516	-5.0701
3300.000000	96.489	-6.4912
3350.000000	96.413	-8.1212
3400.000000	96.288	-9.8513
3450.000000	96.114	-11.5897
3500.000000	95.897	-13.2047
3550.000000	95.657	-14.6157
3600.000000	95.415	-15.8539
3650.000000	95.184	-17.0051
3700.000000	94.967	-18.1383
3750.000000	94.765	-19.2885
3820.000000	94.508	-21.0146
3870.000000	94.334	-22.3564
3950.000000	94.070	-24.6222
4000.000000	93.916	-26.0703
4060.000000	93.752	-27.7462
4120.000000	93.638	-29.2932
4180.000000	93.604	-30.9091
4250.000000	93.635	-33.2117
4310.000000	93.672	-35.4705
4370.000000	93.705	-37.7939
4440.000000	93.739	-40.4330
4500.000000	93.763	-42.5211
4550.000000	93.781	-44.0480
4620.000000	93.809	-45.7435
4680.000000	93.849	-46.6886
4750.000000	93.942	-47.1428
4820.000000	94.116	-46.9956
4870.000000	94.297	-46.6248
4940.000000	94.628	-45.8713
5000.000000	94.977	-45.1193
5080.000000	95.514	-44.0867
5150.000000	96.042	-43.2267
5220.000000	96.612	-42.5187
5300.000000	97.291	-42.0556
5380.000000	97.960	-42.0866
5450.000000	98.503	-42.5471
5520.000000	98.983	-43.3440
5600.000000	99.442	-44.5378
5700.000000	99.866	-46.2302
5800.000000	100.118	-47.8212
5900.000000	100.206	-48.9147
6000.000000	100.170	-49.1526
6080.000000	100.092	-48.6354
6150.000000	100.010	-47.6937
6220.000000	99.926	-46.3490
6300.000000	99.839	-44.3763
6400.000000	99.758	-41.3439
6500.000000	99.725	-37.8359
6600.000000	99.749	-34.0588
6700.000000	99.823	-30.1826
6800.000000	99.938	-26.3010
6900.000000	100.085	-22.4990
7000.000000	100.249	-18.8820
7100.000000	100.412	-15.5212
7200.000000	100.562	-12.4130
7300.000000	100.688	-9.5245
7400.000000	100.784	-6.8287
7500.000000	100.838	-4.2700
7620.000000	100.844	-1.2343
7750.000000	100.794	2.1632
7880.000000	100.703	5.6852
8000.000000	100.592	9.0205
8120.000000	100.460	12.3976
8250.000000	100.299	15.9684
8380.000000	100.102	19.3219
8500.000000	99.864	22.2169
8620.000000	99.557	24.9537
8750.000000	99.117	27.8622
8850.000000	98.684	30.2559
9000.000000	97.877	34.5536
9120.000000	97.113	38.9215
9250.000000	96.202	44.8277
9380.000000	95.261	52.0269
9500.000000	94.425	59.6746
9620.000000	93.662	68.0287
9750.000000	92.944	77.6067
9880.000000	92.344	87.5111
10000.000000	91.887	96.8004
10150.000000	91.435	108.4912
10300.000000	91.105	120.1272
10440.000000	90.893	130.7639
10600.000000	90.736	142.5096
10750.000000	90.641	153.0447
10900.000000	90.561	163.1064
11060.000000	90.462	173.4204
11200.000000	90.351	-177.7973
11380.000000	90.167	-166.6717
11500.000000	90.018	-159.2639
11720.000000	89.697	-145.5181
11800.000000	89.568	-140.4168
12060.000000	89.140	-123.2780
12200.000000	88.927	-113.6627
12410.000000	88.680	-98.7727
12500.000000	88.615	-92.2658
12650.000000	88.577	-81.3437
12800.000000	88.644	-70.4587
13150.000000	89.244	-46.4072
13200.000000	89.375	-43.2634
13400.000000	89.960	-31.8306
13600.000000	90.541	-22.6118
13800.000000	90.964	-15.7617
14000.000000	91.090	-10.7117
14300.000000	90.596	-3.6402
14500.000000	89.879	2.6910
14750.000000	88.780	13.4238
15000.000000	87.772	26.6731
15250.000000	87.161	40.7468
15500.000000	87.097	53.2935
15750.000000	87.403	61.6033
16000.000000	87.587	63.8547
16250.000000	87.116	61.5581
16500.000000	85.705	59.9537
16750.000000	83.408	63.9128
17000.000000	80.480	74.6003
17250.000000	77.215	90.6502
17500.000000	73.859	110.4200
17750.000000	70.591	132.8618
18000.000000	67.518	157.5021
18250.000000	64.688	-175.8477
18500.000000	62.129	-147.3661
18750.000000	59.899	-117.2861
19000.000000	58.095	-85.8618
19250.000000	56.891	-53.7644
19500.000000	56.497	-23.1713
19750.000000	56.774	1.6953
